time_stamp,gyro_x,gyro_y,gyro_z,accel_x,accel_y,accel_z,quat_x,quat_y,quat_z,quat_w
29,-78.81,-237.12,121.19,-6.84,2.34,6.37
40,-42.25,-240.00,99.06,-7.07,3.66,6.02
51,-34.56,-245.44,93.19,-6.38,5.07,-0.01
59,-35.25,-243.12,95.19,-5.85,5.72,5.18
67,-35.25,-243.12,95.19,-6.86,7.60,6.93
78,-37.88,-231.69,103.25,-8.11,7.28,7.57
90,-56.75,-199.75,125.56,-8.55,6.24,7.74
101,-61.62,-188.00,126.44,-10.36,4.66,8.55
109,-57.94,-181.00,119.31,-11.24,5.71,9.74
117,-57.94,-181.00,119.31,-11.90,7.41,11.06
128,-53.62,-180.31,111.44,-11.83,8.42,11.60
141,-64.69,-189.31,107.31,-12.21,9.53,11.35
151,-72.06,-194.50,112.00,-11.52,9.63,10.54
159,-79.94,-197.38,118.56,-11.02,9.43,10.02
167,-79.94,-197.38,118.56,-11.39,7.63,10.25
177,-89.94,-194.00,122.06,-11.16,6.87,10.00
191,-91.44,-195.31,120.06,-10.69,6.46,9.38
201,-84.62,-196.06,114.12,-2.54,-0.01,-0.01
209,-77.00,-194.25,106.00,-9.77,5.63,8.03
217,-77.00,-194.25,106.00,-9.56,5.32,7.74
227,-67.88,-190.31,98.75,-9.50,5.21,7.37
241,-45.50,-174.19,89.81,-9.58,4.07,6.53
250,-37.00,-162.00,85.12,-9.61,3.36,5.78
259,-30.06,-147.94,78.88,-9.54,2.74,4.71
267,-30.06,-147.94,78.88,-9.42,2.21,3.48
278,-24.25,-130.44,70.06,-9.78,1.71,1.70
291,-11.38,-85.00,49.44,-10.24,2.17,1.06
301,-1.88,-62.25,41.38,-10.51,2.73,0.77
309,2.56,-42.12,37.00,-10.40,2.95,-0.15
317,2.56,-42.12,37.00,-10.23,2.78,-0.56
328,3.31,-22.25,34.38,-10.32,2.71,-0.65
340,-2.31,25.81,27.44,-10.41,2.53,-0.47
351,-7.62,49.12,22.88,-11.23,2.65,2.13
359,-7.81,67.00,16.00,-11.87,2.67,3.28
367,-7.81,67.00,16.00,-11.87,2.67,3.28
377,-6.38,74.12,10.38,-9.74,2.27,3.51
391,1.19,87.25,-1.81,-0.81,-0.01,-0.01
401,2.12,95.12,-9.44,-8.43,3.43,6.26
409,0.06,98.06,-16.12,-7.73,2.66,7.44
417,0.06,98.06,-16.12,2.60,0.37,13.38
427,2.25,95.06,-21.94,8.36,-0.01,24.21
441,-3.50,20.19,-32.12,19.99,6.69,28.16
451,-28.75,-16.06,-50.81,19.39,3.45,-15.88
459,8.12,85.00,-71.19,3.35,-1.27,-7.26
467,8.12,85.00,-71.19,-14.09,8.06,14.58
477,-19.25,205.50,-77.19,-17.18,8.33,23.61
491,-33.38,114.00,-8.31,-5.62,-7.58,13.27
501,11.75,89.62,-37.25,-5.64,-1.14,12.50
509,47.62,77.94,-43.25,-5.80,5.00,12.65
517,47.62,77.94,-43.25,-5.80,5.00,12.65
527,53.62,61.56,-23.56,-1.86,8.08,11.32
541,30.50,50.12,-6.62,-2.33,2.03,8.93
551,32.00,50.94,-11.44,-3.47,2.50,9.50
559,39.44,40.38,-12.50,-2.58,4.46,8.87
567,39.44,40.38,-12.50,-2.58,4.46,8.87
577,34.50,38.31,-11.12,-2.23,5.51,8.64
591,26.25,33.75,-7.31,-2.60,4.68,8.79
601,23.00,24.69,-6.88,-2.20,4.47,8.51
609,17.25,24.62,-8.31,-2.68,3.94,8.93
617,17.25,24.62,-8.31,-2.68,3.94,8.93
627,14.38,21.19,-6.69,-3.17,4.19,9.56
641,10.19,8.31,-2.44,-2.52,2.95,9.33
651,9.94,6.81,-1.25,-2.79,3.63,8.94
660,10.00,8.25,0.25,-3.48,3.37,9.48
667,10.00,8.25,0.25,-3.48,3.37,9.48
677,8.06,4.88,2.31,-2.86,3.42,8.76
691,9.62,-0.12,4.81,-2.21,3.79,8.65
701,6.25,-3.75,12.50,-3.56,3.08,7.95
709,10.69,1.50,12.00,-3.71,5.19,9.00
717,10.69,1.50,12.00,-3.71,5.19,9.00
727,3.75,-2.44,10.75,-1.84,3.15,8.19
741,-0.56,0.06,19.25,-2.86,2.99,8.49
759,-2.38,0.44,17.19,-2.46,2.62,8.60
767,-2.38,0.44,17.19,-4.46,3.48,8.47
777,1.00,1.06,9.00,-2.53,4.63,8.21
792,6.31,-2.94,-1.81,-2.56,3.33,8.80
808,10.06,-1.25,-2.12,-2.97,4.14,8.72
811,6.25,-1.25,-1.38,-2.25,3.05,8.58
818,6.25,-1.25,-1.38,-2.20,3.86,8.55
827,4.81,0.00,-1.06,-2.42,4.07,8.40
841,2.75,3.44,1.44,-2.17,3.42,8.25
859,5.19,4.81,-0.56,-2.31,3.36,8.48
867,5.19,4.81,-0.56,-2.73,3.71,8.61
877,6.69,4.19,-1.50,-2.41,3.55,8.57
891,4.94,4.38,-1.12,-2.42,3.85,8.16
909,5.25,4.62,0.06,-2.47,3.40,8.76
917,5.25,4.62,0.06,-2.47,3.40,8.76
927,0.69,3.62,1.81,-2.68,3.71,8.47
941,1.25,1.12,1.38,-2.93,4.32,8.12
959,5.12,2.06,1.12,-3.33,3.69,8.42
962,2.94,1.56,1.56,-2.69,3.97,8.42
967,2.94,1.56,1.56,-2.69,3.97,8.42
977,3.00,1.25,-0.06,-2.64,4.32,8.46
1008,4.19,2.62,-0.44,-2.34,3.72,8.70
1012,3.94,2.88,0.56,-2.64,3.64,8.66
1017,3.94,2.88,0.56,-2.64,3.64,8.66
1027,3.44,3.88,1.44,-2.35,3.83,8.55
1038,4.94,4.44,-0.25,-2.58,3.79,8.50
1051,6.50,5.50,-1.75,-2.60,3.93,8.29
1060,6.25,6.69,-2.62,-2.59,3.87,8.43
1067,6.25,6.69,-2.62,-2.59,3.87,8.43
1077,6.19,7.06,-3.06,-2.61,3.78,8.41
1087,7.25,8.44,-3.50,-2.72,3.65,8.53
1110,9.69,10.88,-3.38,-2.93,3.75,8.23
1117,9.69,10.88,-3.38,-2.93,3.75,8.23
1127,10.38,12.94,-3.56,-2.80,3.88,8.37
1138,11.88,13.50,-3.75,-2.58,3.73,8.15
1151,15.38,14.44,-4.06,-2.85,3.93,8.35
1161,16.31,14.12,-3.50,-2.64,3.85,8.22
1167,16.31,14.12,-3.50,-2.64,3.85,8.22
1177,17.75,16.00,-4.19,-2.68,3.95,8.39
1187,18.56,16.50,-4.81,-2.79,3.95,8.05
1210,24.69,22.44,-4.81,-2.72,3.85,8.18
1217,24.69,22.44,-4.81,-2.72,3.85,8.18
1227,27.50,26.56,-5.19,-2.70,4.07,8.23
1237,29.06,28.62,-5.94,-2.84,3.96,8.20
1261,36.56,40.75,-11.00,-3.35,4.11,7.75
1267,36.56,40.75,-11.00,-3.35,4.11,7.75
1277,37.75,46.50,-13.75,-3.28,3.76,7.65
1290,47.00,55.50,-17.19,-2.84,4.73,7.98
1310,50.38,65.06,-18.81,-2.05,4.66,6.74
1317,50.38,65.06,-18.81,-2.05,4.66,6.74
1327,47.06,73.88,-25.38,-3.00,5.17,8.15
1340,50.38,84.81,-33.44,-3.89,5.10,7.62
1351,54.19,90.00,-38.19,-4.18,5.76,7.64
1360,44.88,94.12,-39.00,-3.32,4.67,8.23
1367,44.88,94.12,-39.00,-3.32,4.67,8.23
1377,29.00,103.69,-42.75,-3.86,4.63,7.54
1390,30.81,126.94,-53.06,-5.01,5.68,6.74
1401,17.56,138.50,-57.56,-4.25,4.89,7.68
1410,14.50,148.25,-62.81,-3.71,4.89,7.44
1417,14.50,148.25,-62.81,-3.71,4.89,7.44
1427,16.94,165.31,-72.19,-4.60,4.85,7.77
1440,20.12,201.44,-81.06,-4.91,4.95,8.39
1452,29.56,218.62,-87.31,-5.56,5.48,10.17
1460,37.25,226.31,-93.81,-7.14,5.04,10.03
1467,37.25,226.31,-93.81,-7.14,5.04,10.03
1477,61.56,227.88,-98.44,-5.50,5.74,9.60
1490,95.06,258.56,-121.44,-5.60,4.46,8.97
1501,113.06,280.56,-133.12,-6.89,6.02,8.91
1510,116.81,298.25,-145.31,-8.21,4.34,9.48
1517,116.81,298.25,-145.31,-8.21,4.34,9.48
1527,120.81,322.12,-140.12,-5.37,4.49,7.38
1540,166.38,356.75,-153.94,-8.92,-3.16,7.94
1551,270.12,380.50,-186.50,-13.65,1.13,7.79
1560,398.31,359.62,-199.94,-14.75,13.35,9.87
1567,398.31,359.62,-199.94,-14.75,13.35,9.87
1577,235.69,242.81,-171.25,-31.77,22.48,40.08
1590,-42.88,-177.94,19.12,-7.20,12.62,19.52
1610,-81.69,-301.06,14.62,2.17,-1.14,4.12
1617,-81.69,-301.06,14.62,2.17,-1.14,4.12
1627,-97.06,-270.56,5.12,2.33,-4.17,3.87
1640,-0.44,-256.69,36.81,2.15,6.37,3.14
1651,-18.81,-257.88,76.69,1.73,6.77,3.13
1660,-45.56,-245.75,99.06,0.37,10.55,3.92
1667,-45.56,-245.75,99.06,0.37,10.55,3.92
1677,-91.00,-252.19,127.75,-0.86,3.74,4.09
1690,-98.25,-227.69,112.94,-1.82,0.24,3.80
1702,-87.69,-227.88,115.81,-1.49,0.07,3.96
1710,-62.44,-225.12,114.00,-4.26,3.29,5.96
1717,-62.44,-225.12,114.00,-4.26,3.29,5.96
1727,-71.75,-219.31,104.06,-6.26,2.79,7.46
1740,-57.88,-241.00,94.06,-6.12,5.12,6.69
1752,-49.12,-247.44,95.44,-6.13,6.70,6.75
1761,-51.62,-239.50,99.62,-7.43,7.58,7.66
1767,-51.62,-239.50,99.62,-7.43,7.58,7.66
1777,-58.81,-231.69,108.69,-8.39,8.47,8.43
1791,-73.06,-233.50,120.38,-1.96,-0.01,-0.01
1808,-76.19,-233.88,121.88,-10.10,7.98,10.43
1811,-84.31,-234.69,124.38,-8.70,4.84,7.78
1817,-84.31,-234.69,124.38,-8.70,4.84,7.78
1827,-83.12,-228.56,125.44,-9.16,6.53,7.98
1840,-78.44,-196.00,121.19,-10.02,7.08,8.97
1858,-70.88,-182.06,120.81,-11.90,9.76,11.17
1861,-60.38,-174.31,124.00,-13.18,11.44,11.93
1867,-60.38,-174.31,124.00,-13.18,11.44,11.93
1877,-68.44,-174.62,128.38,-13.18,10.65,11.40
1892,-71.56,-177.81,131.31,-11.96,7.17,8.31
1908,-66.19,-173.56,128.19,-11.61,6.40,7.98
1910,-64.12,-166.81,123.00,-11.29,5.05,7.36
1917,-64.12,-166.81,123.00,-11.29,5.05,7.36
1927,-59.06,-157.50,115.44,-0.84,-0.01,-0.01
1940,-45.56,-133.44,91.12,-11.19,2.10,4.72
1958,-35.94,-119.00,77.25,-11.13,1.95,2.91
1961,-24.12,-102.12,62.88,-12.08,2.45,2.93
1967,-24.12,-102.12,62.88,-12.08,2.45,2.93
1977,-10.81,-88.38,51.94,-11.78,2.64,1.96
1998,8.19,-57.06,31.88,-10.68,2.45,0.35
2008,16.56,-5.75,-0.06,-10.73,2.81,0.66
2012,15.12,-17.94,14.00,-10.32,2.49,0.82
2017,15.12,-17.94,14.00,-10.32,2.49,0.82
2027,13.69,3.06,8.06,-9.54,2.74,1.36
2041,17.62,35.88,-9.69,-8.86,3.66,2.59
2052,19.38,47.31,-17.19,-8.41,3.98,3.01
2061,21.69,57.75,-21.75,-6.33,4.94,3.62
2067,21.69,57.75,-21.75,-6.33,4.94,3.62
2077,20.88,71.06,-23.94,-5.03,5.88,4.93
2098,14.31,91.56,-23.75,-2.69,5.96,7.78
2111,-14.75,45.25,-10.25,13.32,5.45,24.87
2117,-14.75,45.25,-10.25,13.32,5.45,24.87
2127,-13.31,14.31,-20.81,20.81,7.48,21.65
2140,-40.06,168.44,-78.69,-3.95,-1.31,2.97
2151,-22.56,212.62,-63.69,-16.04,7.57,-0.01
2161,-39.00,151.88,-26.12,-7.42,0.23,17.35
2167,-39.00,151.88,-26.12,-7.42,0.23,17.35
2177,-14.75,111.31,-27.25,-6.55,-1.93,13.44
2191,35.00,75.56,-36.56,-4.36,3.49,13.36
2201,38.12,65.38,-24.56,-2.98,4.71,10.86
2211,37.56,56.69,-10.56,-2.09,4.96,10.15
2217,37.56,56.69,-10.56,-2.09,4.96,10.15
2227,27.81,60.75,-7.06,-3.14,3.29,10.07
2240,36.06,47.06,-18.19,-1.67,3.79,8.20
2251,35.06,46.38,-20.12,-1.80,4.60,7.90
2261,31.12,48.56,-17.69,-2.20,5.26,8.14
2267,31.12,48.56,-17.69,-2.20,5.26,8.14
2277,25.88,46.38,-14.31,-2.53,4.89,8.61
2290,18.25,36.25,-13.25,-3.50,5.09,10.00
2301,11.25,27.75,-11.69,-2.52,3.97,9.76
2311,7.19,28.19,-10.19,-4.26,4.53,10.51
2317,7.19,28.19,-10.19,-4.26,4.53,10.51
2327,3.94,20.62,-3.88,-4.17,4.34,10.27
2340,-1.62,5.19,10.12,-1.77,3.55,9.43
2351,-3.50,4.94,19.44,-2.52,3.06,9.35
2361,5.56,6.12,14.12,-3.07,3.67,9.05
2367,5.56,6.12,14.12,-3.07,3.67,9.05
2377,6.44,4.25,14.81,-2.57,3.84,8.65
2390,10.50,2.19,11.94,-2.39,4.43,8.62
2401,5.88,6.06,-0.06,-3.25,3.72,8.52
2411,6.75,6.12,8.44,-3.02,4.43,9.24
2417,6.75,6.12,8.44,-3.02,4.43,9.24
2427,7.19,-0.31,15.12,-2.63,4.00,8.39
2441,-2.44,3.38,-0.06,-3.18,3.41,8.74
2451,-1.56,2.81,7.25,-3.54,4.01,8.90
2461,2.06,0.19,4.38,-2.99,3.94,7.91
2467,2.06,0.19,4.38,-2.99,3.94,7.91
2477,2.19,-0.56,-1.62,-2.33,3.90,8.94
2490,4.81,-0.25,-4.12,-1.72,3.84,8.58
2501,0.50,1.62,-4.62,-2.00,2.93,8.72
2511,3.06,1.12,-2.56,-2.45,3.28,8.47
2517,3.06,1.12,-2.56,-2.45,3.28,8.47
2527,1.50,2.06,0.56,-2.39,4.21,8.67
2540,0.25,3.06,1.12,-2.26,3.27,8.62
2551,-1.50,2.50,2.44,-2.97,3.19,8.68
2562,-0.19,1.19,1.44,-2.77,3.50,8.58
2566,-0.19,1.19,1.44,-2.77,3.50,8.58
2577,5.19,0.06,-1.56,-2.29,3.63,8.55
2590,4.19,0.38,-1.06,-3.02,3.64,8.30
2601,5.25,0.94,-0.56,-2.68,4.62,8.30
2611,0.31,-0.06,-0.06,-2.47,3.16,8.60
2617,0.31,-0.62,1.62,-2.47,3.16,8.60
2627,3.62,-0.69,3.12,-2.89,4.40,8.35
2640,1.62,0.81,0.88,-2.92,3.92,8.49
2651,2.75,-0.94,-1.31,-2.31,3.64,8.82
2661,3.62,-0.75,-2.38,-2.11,3.62,8.39
2667,3.62,-0.75,-2.38,-2.11,3.62,8.39
2677,5.44,0.94,-3.88,-2.74,4.30,8.26
2690,4.00,0.12,-2.25,-2.70,4.01,8.45
2701,3.44,1.19,-1.94,-2.50,3.36,8.63
2711,5.75,2.44,-2.31,-2.72,4.23,8.20
2717,5.75,2.44,-2.31,-2.72,4.23,8.20
2727,2.38,3.00,-0.75,-2.72,3.46,8.32
2739,4.06,4.00,0.38,-2.90,3.97,8.72
2751,6.31,4.69,-3.25,-2.26,3.50,8.57
2761,7.06,5.88,-2.94,-2.47,3.45,8.57
2767,7.06,5.88,-2.94,-2.47,3.45,8.57
2777,7.56,6.62,-2.62,-2.37,3.66,8.56
2790,8.31,7.75,-2.81,-2.01,3.70,8.45
2801,10.62,9.94,-2.81,-2.33,3.74,8.44
2811,12.38,11.12,-3.31,-2.51,3.79,8.43
2817,12.38,11.12,-3.31,-2.51,3.79,8.43
2827,12.88,12.00,-3.12,-2.45,3.74,8.45
2840,13.56,14.44,-3.62,-2.39,3.70,8.39
2850,15.50,17.12,-4.00,-2.57,4.01,8.41
2862,16.25,18.06,-4.31,-2.85,3.94,8.21
2867,16.25,18.06,-4.31,-2.85,3.94,8.21
2877,17.69,19.06,-4.69,-2.94,3.94,8.24
2890,19.62,20.19,-4.31,-2.81,3.83,8.10
2901,22.88,24.50,-4.81,-2.89,3.97,8.35
2912,24.50,27.25,-4.81,-2.73,4.02,8.19
2917,24.50,27.25,-4.81,-2.73,4.02,8.19
2927,25.19,29.94,-4.44,-2.52,3.75,8.39
2939,27.00,33.69,-5.25,-2.80,3.84,8.39
2952,30.75,41.12,-7.62,-2.85,3.94,8.33
2967,33.44,46.56,-9.00,-3.16,4.02,7.79
2970,33.44,46.56,-9.00,-3.16,4.02,7.79
2977,34.81,52.31,-11.50,-2.98,3.43,7.66
2990,36.94,58.31,-15.00,-3.28,5.31,7.66
3009,40.88,64.88,-16.31,-3.09,4.22,7.65
3017,42.75,71.31,-19.50,-2.96,4.63,7.60
3019,42.75,71.31,-19.50,-2.96,4.63,7.60
3027,44.38,77.12,-23.00,-2.79,4.68,7.64
3040,45.19,83.69,-26.75,-3.48,5.37,7.59
3058,55.44,92.94,-32.94,-3.00,5.58,7.77
3061,51.00,101.19,-38.19,-3.49,5.14,7.63
3067,51.00,101.19,-38.19,-3.49,5.14,7.63
3077,41.38,111.44,-43.06,-4.00,4.70,7.80
3090,36.69,119.75,-47.25,-4.26,5.26,7.28
3102,35.38,144.06,-60.38,-4.81,6.25,6.62
3117,17.00,159.12,-66.56,-4.45,4.47,7.18
3127,22.31,175.94,-74.44,-5.22,5.41,7.09
3140,10.00,190.25,-77.88,-5.45,5.54,7.10
3151,-6.75,214.25,-7.31,-6.04,5.47,7.96
3161,-5.56,226.69,-90.00,-6.29,4.44,10.44
3167,-5.56,226.69,-90.00,-6.29,4.44,10.44
3177,25.50,237.31,-92.44,-6.41,3.33,10.55
3190,68.44,250.56,-93.25,-5.87,3.87,-0.01
3201,129.38,281.81,-109.12,-7.74,5.46,9.15
3211,138.75,287.12,-121.12,-7.98,6.34,9.87
3217,138.75,287.12,-121.12,-7.98,6.34,9.87
3227,133.06,290.94,-136.31,-7.94,4.15,9.24
3240,153.12,301.31,-148.94,-8.04,1.38,8.86
3251,291.06,323.75,-183.19,-11.49,3.91,7.07
3261,346.00,321.19,-179.12,-14.59,7.73,9.75
3267,346.00,321.19,-179.12,-14.59,7.73,9.75
3277,236.88,223.25,-159.06,-19.84,23.96,29.71
3290,41.25,6.56,-92.44,-4.81,6.63,16.37
3301,-19.19,-333.56,-0.81,1.35,3.49,9.51
3311,-19.19,-333.56,-0.81,4.03,3.55,5.09
3316,-30.06,-317.12,-10.88,4.03,3.55,5.09
3326,-55.69,-258.88,-29.06,0.59,-1.32,4.33
3339,-21.44,-233.00,-25.94,0.97,2.66,-0.01
3351,-7.38,-235.88,8.38,2.85,8.48,3.10
3361,-1.31,-246.56,40.56,2.81,8.81,3.79
3366,-24.88,-241.94,65.69,2.81,8.81,3.79
3376,-56.12,-230.56,88.06,1.23,8.44,5.43
3390,-79.12,-225.69,108.75,-1.09,6.61,6.34
3401,-83.31,-229.75,125.50,-1.22,1.53,4.50
3411,-68.38,-229.25,133.12,-2.35,1.93,5.43
3416,-57.31,-224.69,136.75,-2.35,1.93,5.43
3426,-51.06,-225.00,139.12,-5.41,3.64,7.90
3439,-44.69,-231.88,141.94,-5.80,5.02,7.69
3451,-46.06,-239.25,146.94,-5.68,4.24,6.21
3460,-42.75,-229.75,142.62,-7.16,5.50,9.06
3466,-48.56,-215.50,137.25,-7.16,5.50,9.06
3476,-54.62,-206.31,134.25,-8.98,5.65,10.42
3489,-56.69,-210.19,132.38,-10.36,5.82,11.52
3501,-56.88,-220.88,129.69,-10.28,6.46,9.56
3511,-52.62,-223.94,124.44,-10.19,8.15,9.29
3517,-55.31,-222.06,119.75,-10.19,8.15,9.29
3527,-67.31,-215.62,116.62,-9.67,6.83,8.11
3540,-62.81,-202.31,116.12,-9.86,9.80,9.19
3551,-65.00,-190.00,121.31,-11.03,11.33,11.32
3560,-74.75,-182.94,131.75,-10.74,10.60,10.39
3567,-84.00,-181.00,144.75,-10.74,10.60,10.39
3577,-93.25,-178.38,154.25,-10.99,9.50,10.11
3590,-97.31,-175.25,159.31,-10.83,8.85,9.60
3601,-98.50,-171.12,159.88,-10.85,7.34,8.85
3610,-96.50,-165.31,156.00,-10.73,6.38,8.20
3617,-94.62,-159.81,149.19,-10.73,6.38,8.20
3627,-88.19,-152.69,139.19,-10.73,5.47,7.36
3640,-78.31,-143.00,125.94,-10.58,3.97,5.37
3651,-65.81,-130.56,109.12,-11.01,3.27,3.93
3661,-52.44,-117.19,91.06,-11.49,3.04,3.75
3667,-36.44,-104.12,73.00,-11.49,3.04,3.75
3677,-21.25,-93.88,56.62,-11.54,2.19,1.73
3690,-7.56,-81.38,39.75,-11.17,1.57,0.65
3701,6.75,-64.94,21.75,-10.57,2.41,0.21
3710,19.19,-48.69,6.38,-10.00,2.84,0.28
3717,23.19,-29.88,-4.75,-10.00,2.84,0.28
3727,22.88,-7.88,-14.69,-9.51,3.33,0.43
3740,22.50,13.38,-22.75,-9.17,3.62,0.84
3750,24.56,29.69,-27.12,-7.75,5.05,1.93
3760,23.50,45.69,-29.56,-6.96,4.85,1.67
3767,19.75,64.94,-30.38,-6.96,4.85,1.67
3777,13.88,87.50,-30.38,-5.98,5.32,3.90
3790,0.06,108.88,-32.81,-6.56,3.70,5.92
3800,7.12,113.50,-29.75,-4.36,4.99,7.15
3810,-2.50,113.06,-25.62,7.89,3.63,20.29
3817,-25.31,89.81,-21.31,7.89,3.63,-0.01
3827,-27.12,61.94,-29.50,13.59,5.11,23.55
3839,-27.56,31.69,-45.75,18.74,-1.58,21.70
3850,-12.31,99.50,-52.75,-10.76,2.99,10.07
3860,-20.19,207.38,-64.12,-13.96,2.08,20.77
3867,-21.81,178.62,-25.06,-13.96,2.08,20.77
3877,-12.94,128.44,-13.81,-9.96,0.40,18.72
3888,-1.25,109.88,-36.19,-4.10,-2.73,11.84
3900,38.81,98.19,-48.56,-5.45,7.56,-0.01
3911,46.69,86.38,-33.12,-2.49,6.14,10.10
3917,45.50,69.50,-7.88,-2.49,6.14,10.10
3927,30.62,69.06,2.06,-3.36,2.56,10.11
3937,33.88,63.69,-7.31,-4.07,1.97,10.45
3951,38.44,52.00,-17.62,-2.67,5.52,8.29
3961,38.94,49.69,-19.88,-3.08,6.71,8.99
3967,30.56,48.00,-12.19,-3.08,6.71,8.99
3977,16.44,37.38,1.62,-4.27,5.79,10.84
3988,9.50,22.56,4.62,-3.50,3.98,9.92
4001,6.69,10.50,-3.38,-2.23,4.10,-0.01
4011,9.81,9.44,-5.19,-2.58,4.51,9.52
4017,7.69,14.06,-6.00,-2.58,4.51,9.52
4027,9.50,6.19,-3.69,-3.16,3.72,9.48
4037,10.62,2.06,-1.06,-2.56,3.68,9.65
4051,8.19,1.81,0.06,-2.92,3.54,9.14
4061,8.19,3.06,0.81,-3.14,3.78,9.18
4067,10.12,3.06,1.50,-3.14,3.78,9.18
4077,7.94,0.06,3.56,-2.28,3.62,8.89
4088,8.19,2.69,4.81,-2.09,3.63,8.60
4101,5.00,3.25,6.88,-2.33,3.48,8.72
4111,3.75,1.81,9.88,-3.05,3.84,8.76
4117,-1.62,-5.38,17.81,-1.99,4.14,8.78
4127,-1.31,-1.38,18.38,-3.99,4.77,8.59
4137,-3.44,1.88,19.62,-3.14,3.86,8.52
4150,-0.81,1.06,18.50,-2.82,3.31,8.57
4161,6.50,0.06,12.44,-3.63,4.05,9.11
4167,0.75,-3.38,4.44,-2.54,3.37,9.00
4177,4.19,-3.50,-0.56,-2.22,4.28,8.34
4188,2.38,-3.94,-0.56,-2.28,4.22,8.63
4200,1.31,-3.94,-0.44,-1.79,3.74,8.62
4211,1.12,-1.62,0.19,-2.71,3.40,8.84
4217,3.31,-0.56,0.62,-2.96,3.67,8.68
4230,1.25,0.38,-0.62,-1.91,3.89,8.42
4238,2.81,-0.25,-1.31,-2.03,3.53,8.51
4251,4.88,-1.00,-1.62,-2.05,3.52,8.66
4261,6.50,1.12,-1.81,-2.23,3.80,8.36
4267,4.38,0.69,-1.25,-2.60,3.48,8.53
4277,4.31,0.25,-1.44,-2.58,3.58,8.47
4288,5.38,0.50,-0.94,-2.65,3.60,8.47
4301,6.38,0.19,-0.69,-2.53,3.78,8.40
4310,6.50,1.50,-0.81,-2.54,3.50,8.52
4317,6.25,1.44,-0.88,-2.93,4.39,8.50
4327,3.94,-0.31,-0.62,-2.42,3.29,8.55
4337,4.81,-0.38,-1.19,-2.19,3.48,8.46
4351,5.94,0.44,-1.25,-2.42,3.91,8.71
4361,5.88,0.69,-0.88,-2.21,3.54,8.37
4367,7.44,1.88,-0.94,-2.38,3.80,8.64
4377,6.62,2.81,-0.75,-1.99,3.41,8.72
4387,8.06,4.00,-0.06,-2.39,4.34,8.36
4398,5.62,3.19,-0.50,-2.12,3.54,8.73
4408,7.25,4.94,-1.06,-2.57,3.91,8.65
4417,5.88,4.88,-0.25,-1.94,3.64,8.47
4427,5.81,6.88,-0.75,-2.26,3.76,8.52
4437,6.50,6.56,-1.44,-2.20,3.76,8.71
4450,7.75,7.00,-2.12,-2.40,3.83,8.10
4459,8.75,8.62,-2.50,-3.03,3.80,8.63
4467,8.69,8.56,-1.69,-2.43,4.02,8.34
4477,8.50,10.19,-1.88,-2.66,3.85,8.25
4487,9.81,10.88,-2.50,-2.86,3.86,8.27
4499,11.06,12.31,-2.88,-2.81,3.72,8.35
4509,12.88,13.81,-3.31,-2.87,3.89,8.16
4517,13.00,13.56,-3.00,-1.93,3.63,8.35
4527,14.88,15.94,-4.00,-2.34,3.80,8.55
4537,16.25,16.62,-4.06,-2.18,3.76,8.46
4549,17.62,17.50,-4.19,-2.53,3.95,8.27
4559,17.94,17.81,-4.44,-2.51,4.01,8.51
4568,18.94,18.00,-4.56,-2.36,3.81,8.15
4578,20.62,18.88,-4.56,-2.78,4.08,8.39
4587,22.00,20.69,-4.81,-2.98,4.03,8.14
4598,23.62,23.12,-4.81,-2.63,4.02,8.25
4608,25.69,26.69,-5.38,-2.73,3.77,8.21
4617,28.00,29.44,-4.94,-2.70,3.78,8.22
4627,31.06,33.19,-5.56,-2.78,4.25,8.23
4637,32.19,37.81,-7.44,-3.03,3.71,8.11
4648,36.56,41.44,-8.00,-3.09,3.97,8.22
4658,38.38,45.94,-8.81,-3.35,4.15,7.96
4667,40.31,50.25,-10.12,-3.31,4.37,7.68
4677,40.19,56.56,-12.31,-3.48,3.90,7.19
4687,45.50,61.50,-13.69,-3.82,5.01,8.03
4698,47.19,62.75,-13.75,-2.48,5.15,7.77
4708,46.88,68.44,-16.44,-3.05,4.50,8.16
4717,49.88,72.94,-19.56,-2.61,4.75,6.96
4727,53.00,79.38,-24.75,-2.85,5.02,8.10
4737,57.19,81.94,-31.38,-2.97,4.73,7.82
4748,66.00,85.25,-36.75,-3.33,5.01,7.96
4758,64.19,89.12,-39.88,-3.23,6.46,7.52
4767,49.88,97.38,-45.19,-3.48,4.67,7.70
4777,52.88,106.81,-49.62,-3.84,5.04,7.54
4787,44.31,115.12,-52.69,-4.39,5.79,7.39
4798,35.81,124.94,-56.06,-4.05,5.18,6.86
4808,32.25,139.81,-62.62,-4.23,4.89,7.17
4817,32.88,154.31,-70.31,-4.54,5.48,7.02
4827,12.88,169.38,-73.75,-4.19,5.00,7.43
4837,-0.12,186.38,-79.12,-4.79,5.48,6.86
4848,-5.50,202.50,-84.00,-5.41,5.43,6.79
4858,-9.12,216.50,-85.31,-5.77,5.44,7.23
4867,9.00,222.00,-88.62,-5.78,5.49,8.75
4877,31.06,230.94,-94.12,-5.83,2.95,11.73
4887,79.44,243.56,-97.56,-6.55,4.49,9.60
4898,102.50,254.31,-101.31,-6.98,4.47,9.96
4908,131.75,261.31,-106.69,-7.02,5.69,8.66
4917,135.88,275.00,-116.31,-7.50,6.43,8.68
4927,125.00,292.12,-125.81,-7.51,6.25,8.66
4937,126.56,309.62,-142.69,-8.05,3.27,7.51
4948,163.94,340.12,-167.75,-8.04,-2.23,7.19
4958,274.25,361.12,-186.62,-8.82,3.04,9.82
4967,320.12,338.62,-182.62,-12.58,3.46,7.75
4977,362.50,283.88,-166.75,-18.91,15.59,20.25
4987,362.50,283.88,-166.75,-28.84,22.95,37.77
4998,168.25,92.31,-118.56,-33.35,25.09,36.06
5008,-58.62,-303.88,11.00,-0.57,4.03,12.78
5018,-48.00,-334.31,7.19,2.40,4.38,5.94
5027,-80.00,-290.25,-10.81,2.70,1.68,3.52
5037,-80.00,-290.25,-10.81,1.98,-1.61,3.17
5049,-63.19,-262.88,-9.44,1.48,1.45,2.87
5058,-20.00,-254.44,52.19,2.07,3.63,2.79
5067,-20.00,-254.44,52.19,0.46,5.52,5.17
5077,-52.94,-247.31,102.38,-3.02,6.52,6.42
5087,-52.94,-247.31,102.38,-2.12,12.19,6.55
5098,-59.12,-252.31,101.56,0.07,5.99,5.57
5108,-100.06,-257.75,110.31,-1.02,1.44,3.67
5117,-84.94,-252.50,121.00,-1.73,0.40,4.10
5127,-43.44,-241.06,135.00,-2.62,1.39,5.22
5137,-43.44,-241.06,135.00,-4.44,3.93,5.98
5149,-36.12,-236.25,137.44,-5.05,5.24,6.60
5159,-49.31,-234.88,140.38,-5.31,4.55,7.32
5167,-56.12,-229.75,142.69,-6.33,5.21,8.32
5177,-56.00,-223.19,140.19,-9.39,5.49,10.68
5187,-60.44,-216.56,133.19,-10.62,5.91,11.18
5199,-59.50,-216.88,128.38,-11.06,6.53,11.05
5209,-59.19,-224.56,123.69,-11.12,7.65,11.49
5218,-63.88,-232.19,118.44,-10.50,7.62,9.67
5227,-78.31,-234.62,116.25,-9.66,7.35,9.44
5237,-80.12,-230.44,115.88,-10.23,9.69,10.50
5249,-79.62,-222.38,117.81,-10.75,10.68,11.14
5259,-91.50,-219.69,123.56,-10.51,10.25,10.96
5268,-99.06,-219.31,131.06,-10.55,10.19,11.04
5277,-101.00,-218.00,138.12,-10.71,9.78,11.16
5287,-101.19,-216.12,143.31,-10.02,8.31,9.53
5299,-99.75,-214.25,145.62,-9.93,7.55,8.97
5309,-92.25,-207.25,144.00,-10.36,7.53,8.92
5318,-82.25,-198.50,140.25,-10.77,5.79,7.87
5327,-74.81,-188.94,134.19,-10.81,4.19,6.65
5337,-65.06,-176.38,124.56,-11.05,3.08,5.59
5349,-53.56,-158.31,109.56,-11.31,2.16,4.23
5359,-42.44,-135.69,89.06,-13.12,1.51,3.67
5368,-26.06,-113.06,66.75,-14.81,2.94,3.77
5377,-8.62,-100.25,48.75,-14.09,2.18,2.13
5387,-3.19,-91.88,35.31,-13.22,1.73,0.00
5399,11.56,-78.00,19.50,-12.76,2.94,-0.49
5409,23.38,-61.31,7.81,-12.13,3.52,-1.15
5418,22.12,-37.25,1.12,-11.85,3.70,-1.55
5427,16.44,-7.50,-1.19,-11.36,4.46,-1.01
5437,14.38,21.94,-4.81,-11.22,5.27,-0.53
5449,15.06,46.25,-7.44,-10.42,5.54,-0.32
5459,15.50,67.62,-8.56,-8.03,6.86,1.89
5468,13.50,88.31,-7.38,-7.89,5.25,3.19
5477,4.25,111.06,-6.88,-6.59,5.18,3.52
5487,4.62,126.31,-6.12,-3.94,5.73,5.71
5500,-25.88,119.50,-4.19,11.02,6.23,22.92
5510,-19.06,85.94,-13.12,18.34,4.44,24.59
5518,-42.31,56.44,-45.81,23.08,-0.54,14.88
5527,-24.44,67.12,-75.56,-2.88,-0.34,2.63
5537,-34.12,190.44,-68.50,-20.29,10.25,15.89
5549,-24.25,212.31,-23.25,-15.55,4.72,21.14
5560,-37.62,121.25,42.62,-7.14,-1.32,15.35
5568,-18.38,92.38,15.62,-4.43,-6.97,12.27
5577,7.56,89.50,-29.25,-5.01,-1.75,13.08
5587,36.75,83.38,-45.69,-5.06,2.60,13.25
5600,53.50,71.00,-33.75,-1.21,7.70,9.54
5610,51.69,59.31,-13.81,-1.66,4.76,9.67
5618,32.81,66.38,-3.44,-2.61,3.08,9.99
5627,35.94,61.50,-9.06,-3.23,1.62,9.89
5637,42.81,50.31,-9.69,-1.68,3.84,8.96
5650,45.50,49.81,-22.06,-3.14,5.97,9.47
5660,45.94,50.31,-16.00,-2.59,6.34,9.12
5669,35.06,40.81,-6.00,-1.61,4.56,8.87
5677,29.69,38.50,-3.31,-2.57,5.12,10.00
5687,29.94,36.25,-6.38,-3.38,6.14,10.03
5700,22.44,30.06,-1.69,-4.08,5.23,9.26
5710,13.06,23.12,0.00,-2.84,3.99,10.16
5718,9.94,17.38,0.31,-3.33,4.10,10.01
5727,10.12,14.94,-0.19,-3.14,4.40,10.23
5737,7.69,10.69,-0.50,-2.38,3.40,8.98
5750,4.88,12.19,-2.00,-2.46,3.86,9.23
5760,6.94,12.56,-1.44,-2.33,3.84,8.78
5768,5.44,10.12,0.38,-2.46,3.71,8.40
5777,5.44,-0.06,-0.06,-1.93,3.84,8.21
5787,3.00,7.50,1.31,-3.06,3.79,8.58
5800,3.31,11.12,0.25,-3.56,4.75,8.82
5810,-1.44,8.50,1.25,-2.51,3.38,8.76
5818,-2.69,6.50,0.12,-2.77,4.32,8.84
5827,2.75,5.38,-1.19,-2.76,4.13,8.81
5837,0.00,5.31,-0.56,-3.00,4.13,8.34
5850,-2.88,5.00,-0.62,-3.39,4.34,9.79
5860,1.88,2.06,-0.38,-1.30,3.71,7.72
5868,-3.31,-0.88,-1.25,-1.68,3.75,9.37
5877,-2.62,5.88,-3.81,-3.05,4.25,9.27
5887,-2.62,5.56,-2.25,-2.31,3.61,8.91
5900,-3.88,1.62,-0.12,-1.79,3.47,8.70
5910,-5.62,4.00,0.62,-1.64,3.49,8.52
5919,-4.00,7.69,1.50,-2.15,3.54,8.75
5927,-1.12,5.25,1.00,-2.21,4.01,8.89
5937,-2.19,2.56,2.62,-2.28,3.73,8.39
5950,-4.00,4.00,0.88,-2.96,3.94,8.61
5960,-1.88,4.69,0.25,-2.05,-0.01,-0.01
5969,-2.88,1.06,1.50,-2.21,3.50,8.51
5977,-3.00,-0.06,1.62,-2.76,3.58,8.39
5987,0.44,1.12,0.69,-3.34,3.25,8.70
6001,-2.25,0.88,-1.12,-2.28,4.05,8.33
6011,1.62,-1.19,-1.75,-2.58,3.86,8.35
6019,-0.62,-1.44,-1.31,-2.17,4.01,8.36
6027,3.25,-3.25,-0.31,-2.61,3.25,8.60
6037,-0.31,-2.69,2.56,-2.31,3.62,8.69
6047,3.62,-3.25,3.88,-2.31,3.89,8.55
6060,2.81,-2.94,4.00,-2.45,4.14,8.44
6069,5.75,-2.00,3.31,-2.50,4.40,8.44
6077,-0.50,-2.19,1.75,-2.58,3.23,8.60
6087,3.12,-2.06,-0.25,-2.04,3.97,8.43
6101,2.00,-2.56,-0.44,-2.40,3.23,8.85
6111,2.00,-1.25,-1.31,-2.16,3.85,8.59
6119,4.06,-0.62,-0.88,-2.10,4.17,8.43
6127,-0.56,0.69,-0.12,-2.47,3.97,8.53
6137,3.69,1.56,-1.31,-2.37,3.34,8.44
6149,5.75,2.31,-3.00,-2.50,3.93,8.50
6161,5.69,3.38,-3.31,-2.68,3.85,8.36
6172,5.88,4.06,-3.62,-2.49,3.58,8.71
6177,5.12,4.12,-3.69,-2.36,3.75,8.29
6187,6.38,5.50,-3.94,-2.58,3.60,8.42
6199,7.69,5.88,-3.94,-2.08,3.54,8.46
6210,6.75,5.12,-3.56,-2.53,3.64,8.37
6219,8.19,7.38,-4.00,-2.23,3.71,8.58
6227,8.62,7.12,-3.62,-2.79,3.80,8.43
6237,10.88,-0.06,-0.06,-2.54,3.69,8.47
6249,11.44,10.00,-3.94,-2.28,3.78,8.42
6260,12.38,10.56,-4.50,-2.37,3.58,8.41
6269,13.81,12.06,-4.31,-2.15,3.61,8.34
6277,14.31,13.75,-3.88,-2.82,4.01,8.45
6287,16.56,17.06,-4.12,-2.81,3.73,8.53
6298,17.25,17.44,-3.62,-2.22,3.72,8.44
6310,17.44,18.62,-4.94,-2.55,3.99,8.43
6319,19.00,20.00,-6.31,-2.59,4.01,8.21
6327,20.75,21.06,-6.06,-2.51,3.96,8.32
6337,20.12,23.88,-6.62,-2.44,3.29,7.80
6350,24.12,29.44,-9.38,-3.45,3.98,8.88
6369,29.50,37.69,-10.75,-2.37,4.91,7.63
6377,31.25,43.88,-12.50,-1.36,3.36,8.00
6387,28.62,52.31,-16.69,-2.63,4.45,8.76
6400,35.62,61.44,-20.81,-1.74,4.79,8.74
6418,31.88,69.31,-25.94,-3.02,4.91,8.16
6420,40.25,79.25,-30.44,-2.15,4.80,8.31
6427,41.12,87.00,-32.75,-2.75,4.18,8.18
6437,42.25,98.00,-37.75,-3.44,3.67,7.46
6449,49.44,109.44,-43.25,-4.20,4.04,8.04
6468,62.62,124.94,-46.88,-3.65,4.67,7.62
6472,67.50,-0.06,-0.06,-4.13,5.08,6.98
6477,73.56,150.06,-56.75,-4.32,5.29,6.84
6487,63.12,163.25,-60.19,-4.21,4.12,7.59
6500,56.19,177.75,-67.81,-5.28,6.50,6.44
6512,39.19,189.69,-74.94,-4.10,4.03,7.85
6520,22.25,197.44,-84.38,-5.76,6.21,-0.01
6527,25.38,210.12,-92.75,-5.74,6.12,8.65
6537,2.00,216.69,-97.56,-5.78,5.00,8.97
6549,-15.19,230.44,-99.00,-5.41,3.09,12.23
6568,1.62,241.44,-93.00,-5.77,2.61,10.73
6571,67.12,246.00,-91.62,-6.75,5.12,9.88
6577,100.44,255.56,-92.56,-5.81,4.96,9.45
6587,119.00,274.25,-96.25,-6.93,6.50,8.68
6600,127.25,294.12,-105.31,-6.66,5.66,8.77
6618,133.50,304.12,-123.19,-8.39,3.68,10.09
6621,169.31,307.44,-146.62,-9.34,3.49,10.03
6626,220.94,313.44,-172.50,-9.41,1.27,8.03
6636,307.50,348.25,-199.12,-10.99,6.74,8.89
6648,304.62,335.38,-186.12,-24.85,13.81,38.74
6667,135.00,187.31,-134.56,-29.59,24.79,35.64
6670,64.88,-36.50,-40.00,-2.00,-0.01,-0.01
6676,-54.38,-217.56,3.94,1.40,4.77,9.10
6686,-63.62,-275.25,-3.19,1.42,0.14,5.23
6699,-88.06,-256.62,-17.44,2.36,-4.61,3.80
6721,-6.38,-233.50,-10.50,2.62,3.24,3.92
6727,9.50,-226.44,12.56,1.76,6.82,5.53
6737,1.94,-224.12,41.50,1.32,9.65,6.86
6749,-28.44,-231.75,71.44,0.90,11.06,7.63
6770,-93.88,-251.75,105.12,-1.16,1.89,5.68
6777,-77.75,-248.56,110.12,-1.40,0.78,4.73
6787,-58.69,-245.00,115.12,-2.12,2.65,5.88
6800,-43.00,-243.56,120.88,-3.63,4.49,6.76
6811,-13.75,-0.06,-0.06,-5.25,4.73,7.44
6819,-57.50,-239.56,125.00,-5.30,2.81,8.23
6826,-56.62,-238.88,123.31,-6.41,3.53,9.10
6836,-49.19,-235.19,121.50,-7.85,4.02,10.34
6848,-49.94,-232.38,119.44,-8.94,4.23,10.76
6861,-50.06,-232.19,115.94,-10.75,5.37,11.31
6869,-46.38,-236.12,112.31,-10.84,6.37,10.74
6876,-47.88,-240.38,110.38,-9.59,5.43,8.26
6886,-52.25,-232.75,107.94,-8.54,4.40,6.79
6899,-43.25,-211.75,103.88,-10.57,9.44,10.29
6911,-40.31,-195.19,104.38,-13.41,11.57,13.74
6920,-43.94,-191.88,113.81,-14.25,13.25,13.61
6927,-59.50,-200.75,132.25,-12.17,10.92,9.91
6937,-75.31,-198.56,143.38,-12.75,9.47,9.95
6950,-85.25,-191.94,148.31,-13.03,8.76,9.73
6969,-93.38,-188.25,152.12,-11.93,6.12,8.41
6970,-97.94,-181.12,150.12,-11.99,5.57,8.19
6977,-97.69,-172.06,142.19,-12.03,5.34,7.61
6987,-95.25,-163.69,131.81,-11.72,4.96,6.56
7000,-91.19,-152.19,120.25,-11.23,4.11,3.68
7018,-85.38,-135.12,105.44,-11.35,3.53,-0.01
7021,-73.38,-115.50,89.94,-11.35,3.11,0.73
7027,-54.19,-95.75,74.38,-12.43,3.09,-0.51
7037,-33.56,-76.19,58.62,-12.28,2.47,-1.36
7050,-17.00,-55.81,43.38,-12.50,2.61,-1.57
7070,5.62,-14.19,15.12,-12.20,2.70,-2.57
7077,8.06,6.31,2.88,-2.47,-0.01,-0.01
7087,12.00,33.69,-11.75,-12.56,4.45,-1.59
7100,17.25,55.50,-19.12,-8.96,5.81,2.20
7119,-1.50,78.19,-21.56,-11.41,0.67,4.64
7121,5.81,92.44,-22.69,-2.11,6.30,3.93
7127,15.81,72.25,-8.81,9.63,6.12,15.00
7137,-13.19,82.75,-20.44,14.12,2.32,22.78
7150,-33.06,64.50,-32.62,15.16,1.26,4.05
7170,-7.81,171.75,-34.19,-13.96,7.19,18.39
7177,-8.06,173.94,-1.44,-9.53,-0.54,17.86
7187,-25.56,128.12,31.81,-5.75,-4.49,13.92
7201,-11.62,107.50,0.62,-5.97,-7.42,13.01
7219,24.44,85.94,-31.50,-5.73,1.38,13.35
7222,40.31,71.62,-36.75,-4.62,3.89,12.69
7227,47.12,57.44,-20.81,-2.31,6.61,10.92
7237,38.44,57.31,-5.12,-1.52,3.39,9.76
7250,23.88,61.69,-4.19,-2.43,1.80,8.83
7271,45.94,45.88,-18.50,-1.76,1.79,8.13
7277,47.19,52.75,-20.38,-3.80,4.94,9.87
7287,49.44,53.62,-15.69,-3.02,6.42,9.50
7300,43.06,41.50,-5.50,-2.16,5.55,9.06
7321,26.94,32.94,-0.50,-3.37,5.48,9.49
7327,18.25,28.19,0.25,-3.56,5.09,10.20
7337,15.19,22.06,-2.50,-4.15,4.66,10.57
7349,9.88,14.81,-2.94,-2.85,3.82,9.46
7369,3.75,8.94,-4.00,-1.59,3.61,8.87
7372,2.56,11.44,-5.25,-2.28,-0.01,-0.01
7377,2.81,15.50,-5.38,-2.59,3.35,9.12
7387,4.06,12.62,-3.44,-2.45,3.87,8.80
7400,5.69,9.44,-2.31,-2.63,3.63,8.91
7412,4.94,6.62,-1.81,-2.67,3.65,8.52
7420,7.50,4.88,0.19,-2.96,3.74,8.87
7427,3.19,-1.62,3.44,-2.62,3.13,9.07
7437,3.75,-0.81,6.75,-3.30,3.96,9.25
7447,1.75,-0.75,10.31,-2.69,3.70,8.88
7461,-3.50,-0.38,12.31,-2.77,4.00,8.50
7470,-7.69,1.94,15.38,-2.99,3.85,9.04
7477,-10.94,-1.12,20.75,-2.06,3.60,8.30
7487,-7.31,0.25,13.38,-3.32,5.18,8.23
7500,-4.38,0.00,5.56,-2.47,3.54,9.04
7511,-4.56,-4.94,1.31,-2.10,3.63,8.74
7520,-2.06,-4.88,-2.44,-2.12,3.04,9.11
7527,-2.75,-2.94,-3.38,-2.16,3.61,8.54
7537,-2.62,-4.06,-3.06,-1.84,2.96,8.99
7550,-0.50,-1.50,-1.62,-1.94,3.70,8.68
7561,-1.75,-0.56,0.81,-2.42,3.47,8.71
7571,-1.00,-0.25,2.81,-2.50,3.73,8.48
7577,-0.44,-1.81,2.56,-2.36,3.24,8.73
7587,0.50,-2.00,0.06,-2.80,3.88,8.44
7598,2.25,-1.50,-0.88,-2.66,3.59,8.49
7621,0.50,0.81,3.00,-3.24,3.75,8.62
7627,1.19,-1.06,2.94,-2.32,3.52,8.51
7637,1.12,-2.06,1.19,-2.44,3.58,8.52
7648,2.38,-2.06,0.25,-2.38,3.41,8.65
7668,1.88,-2.44,0.00,-2.08,3.14,8.91
7671,4.12,-1.31,0.12,-1.85,3.56,8.45
7677,5.69,0.81,-0.06,-2.01,3.30,8.91
7687,4.94,0.88,0.06,-1.33,3.08,8.70
7698,8.75,3.19,-0.06,-2.21,3.61,8.72
7721,7.62,1.38,-2.00,-2.34,4.16,8.60
7727,4.94,1.62,-1.50,-2.00,3.76,8.46
7737,9.44,3.00,-1.38,-2.24,3.76,8.61
7748,5.69,3.88,-0.81,-1.89,3.06,8.66
7759,8.44,4.94,-1.19,-2.57,4.02,8.52
7771,7.50,5.50,-0.69,-2.64,4.21,8.43
7777,9.81,3.50,-0.12,-2.28,3.06,8.51
7787,9.75,2.75,0.44,-2.43,4.13,8.59
7799,7.81,3.44,2.50,-2.81,3.80,8.38
7821,12.88,2.31,-0.38,-2.49,4.04,8.34
7827,11.38,2.31,-1.81,-2.31,3.49,8.43
7837,11.38,3.56,-2.38,-2.05,3.72,8.47
7848,9.56,5.19,-3.44,-2.51,3.82,8.21
7868,11.06,8.25,-5.62,-2.29,3.92,8.62
7870,11.94,9.12,-7.12,-2.44,3.91,8.70
7877,14.69,11.44,-7.62,-2.24,3.74,8.78
7887,11.62,11.50,-5.50,-2.24,3.43,8.60
7898,14.94,13.00,-4.38,-2.47,4.07,8.65
7912,15.12,14.12,-4.31,-2.82,4.08,8.45
7919,17.00,16.31,-3.69,-2.88,3.44,8.50
7927,18.12,18.25,-4.94,-2.65,3.97,8.46
7937,20.50,19.75,-7.38,-2.70,3.02,8.40
7948,22.31,23.94,-10.50,-2.36,3.89,8.25
7968,27.62,28.75,-12.50,-2.47,4.57,8.46
7970,29.44,31.62,-12.44,-1.79,4.40,8.76
7977,30.31,38.12,-14.50,-1.44,3.76,8.34
7987,32.50,47.00,-18.75,-1.89,4.27,8.57
7998,36.50,57.69,-24.06,-1.84,4.26,8.68
8012,37.38,67.81,-28.12,-1.91,4.43,8.34
8021,40.38,78.94,-31.50,-1.94,4.18,8.52
8027,43.06,92.38,-35.06,-1.57,4.19,8.69
8037,47.69,105.62,-40.75,-2.40,3.78,8.63
8048,56.25,118.56,-47.38,-2.95,4.47,8.16
8059,61.00,131.75,-52.38,-2.52,3.59,7.70
8070,68.88,151.81,-60.75,-3.13,3.29,8.32
8077,91.19,173.88,-72.12,-4.61,5.41,7.07
8087,96.94,191.94,-78.56,-4.41,6.45,6.68
8098,72.00,209.25,-86.62,-4.03,4.51,7.28
8110,54.38,229.88,-99.50,-5.27,7.72,6.72
8121,18.06,244.06,-109.00,-5.56,6.06,9.24
8127,18.25,253.50,-117.12,-5.40,5.91,10.30
8137,0.38,265.62,-119.12,-6.47,5.37,12.69
8148,17.69,276.25,-116.44,-4.61,3.89,10.29
8160,79.75,290.50,-115.38,-7.76,4.32,11.54
8170,130.12,299.12,-125.12,-10.29,5.46,10.86
8177,161.81,292.38,-154.25,-7.45,5.71,10.68
8186,170.69,296.12,-158.50,-5.96,5.42,10.49
8198,153.62,302.31,-152.25,-8.21,2.21,9.68
8209,210.31,320.38,-171.56,-9.44,2.50,9.24
8220,248.50,318.19,-192.31,-19.37,17.17,33.63
8227,113.81,175.94,-159.88,-24.93,12.55,32.69
8237,42.06,-39.75,-70.38,-10.79,11.36,22.76
8248,16.38,-192.94,-15.38,0.31,7.68,15.36
8258,-12.94,-211.88,-9.44,2.51,1.72,6.68
8270,-40.50,-187.88,-14.50,2.06,-1.15,6.05
8277,-20.62,-186.81,-10.44,1.23,0.38,5.22
8287,3.50,-200.06,3.06,1.83,4.52,6.18
8298,5.31,-205.38,17.44,0.87,6.76,6.90
8309,-16.50,-210.25,33.56,0.48,6.50,7.60
8320,-37.62,-222.69,49.12,0.02,6.18,7.75
8327,-52.44,-233.44,65.94,1.50,2.82,4.70
8337,-60.19,-232.25,78.75,0.75,1.75,4.52
8348,-52.62,-225.00,87.06,-0.35,1.95,4.55
8359,-43.88,-222.94,93.00,-2.01,3.00,6.29
8370,-35.19,-221.12,97.19,-3.05,4.77,7.16
8377,-34.56,-222.25,103.25,-3.96,5.31,7.94
8386,-43.88,-225.00,110.00,-3.99,5.31,8.00
8398,-51.81,-224.56,114.19,-5.62,3.62,8.22
8408,-53.25,-221.38,113.38,-6.83,3.82,9.37
8419,-51.44,-220.44,109.56,-7.95,4.36,10.27
8427,-47.38,-223.38,106.12,-9.73,6.31,10.66
8437,-48.06,-228.19,103.19,-9.28,7.23,11.10
8448,-49.00,-233.88,103.88,-10.08,8.64,12.29
8459,-53.25,-238.56,109.25,-10.32,10.57,12.66
8469,-66.75,-243.31,118.00,-9.58,9.82,11.76
8477,-74.12,-243.06,126.69,-9.51,9.70,11.28
8487,-76.56,-240.38,134.44,-8.88,9.28,10.58
8498,-75.94,-232.44,140.00,-9.90,10.36,11.80
8508,-75.44,-225.50,145.50,-10.01,10.73,12.07
8518,-79.81,-221.25,151.25,-9.75,9.76,11.37
8527,-81.94,-213.38,154.12,-9.54,8.41,10.46
8537,-78.19,-200.81,152.50,-10.12,7.16,9.87
8548,-73.31,-186.81,146.31,-10.58,6.30,9.57
8559,-67.75,-171.38,136.50,-11.13,5.29,8.25
8569,-61.38,-154.94,121.19,-11.58,3.07,5.41
8577,-46.50,-138.50,101.50,-11.88,2.13,4.06
8587,-30.88,-120.06,78.62,-12.95,1.56,3.45
8598,-10.31,-106.50,54.19,-13.69,1.60,2.81
8609,4.69,-94.50,32.56,-13.77,1.02,0.58
8619,16.88,-78.94,14.50,-13.68,1.22,-0.26
8627,28.44,-13.00,-0.06,-13.77,2.08,-0.64
8637,31.50,-42.06,-8.00,-12.87,2.51,-1.35
8648,28.12,-20.88,-12.25,-11.60,2.28,-1.62
8659,29.12,4.25,-16.88,-10.90,3.08,-0.85
8669,31.12,29.88,-20.31,-10.87,4.66,0.52
8677,27.62,49.81,-18.75,-9.10,5.21,1.80
8687,25.00,69.88,-15.44,-8.37,5.12,2.11
8698,21.44,92.88,-13.12,-7.96,5.37,2.60
8709,17.62,113.69,-10.50,-6.27,6.34,4.63
8720,12.12,131.69,-8.94,-6.04,5.13,6.05
8728,7.62,144.62,-7.50,-5.94,5.07,7.51
8737,14.69,145.19,-3.38,-4.88,6.11,8.73
8748,-4.25,121.38,9.88,9.01,5.70,20.69
8759,-16.44,98.88,9.50,14.43,5.91,25.27
8769,-43.38,61.56,-6.81,19.67,-1.60,29.47
8778,-5.38,35.25,-26.31,15.05,-14.56,-14.70
8787,-5.38,35.25,-26.31,-4.04,-9.30,3.31
8798,11.38,225.69,-30.06,-21.50,2.40,21.28
8809,-20.62,171.00,-9.56,-20.37,1.12,22.35
8820,-25.06,96.81,-18.31,-3.13,-2.22,-0.01
8828,31.50,78.06,-39.88,-3.05,5.33,12.20
8837,31.50,78.06,-39.88,-4.07,8.56,11.11
8848,34.25,67.69,-20.69,-2.28,5.10,10.27
8859,30.50,57.81,-8.38,-2.18,2.18,9.19
8870,25.00,59.88,-11.94,-2.55,1.98,9.45
8878,32.81,54.75,-0.06,-2.79,5.24,9.08
8887,21.31,51.44,-16.56,-4.50,6.24,9.88
8898,6.19,39.44,-9.56,-4.47,4.48,10.36
8908,0.81,22.44,-5.00,-4.96,3.36,11.90
8919,10.19,8.00,-3.38,-2.47,5.35,9.31
8928,11.56,3.56,-6.69,-2.84,4.76,9.73
8937,11.56,3.56,-6.69,-3.31,3.79,10.09
8948,5.19,4.50,-1.81,-2.86,3.97,9.71
8959,4.50,0.31,1.56,-2.72,3.51,9.94
8969,-0.69,-0.81,7.19,-2.61,3.18,8.87
8978,4.50,0.69,5.81,-2.92,3.55,8.91
8987,3.00,2.06,3.81,-2.19,2.60,8.71
8998,1.12,1.50,5.75,-2.52,3.49,8.83
9009,6.88,-0.12,7.94,-2.21,4.36,8.51
9019,0.19,-1.44,14.25,-2.16,3.03,8.86
9028,-0.50,-1.56,21.50,-3.22,3.71,8.53
9037,-0.50,-1.56,21.50,-2.72,3.05,8.36
9048,0.00,1.50,15.06,-3.52,4.28,8.92
9059,-0.12,-0.75,10.75,-2.71,3.21,8.77
9069,3.38,0.12,5.38,-3.32,4.49,8.98
9078,2.94,-2.75,2.00,-2.49,3.94,8.12
9087,-0.12,-2.56,-1.25,-2.01,3.44,8.82
9098,2.31,-0.75,-2.56,-2.60,3.64,8.85
9109,2.25,-2.50,-0.81,-2.21,3.83,8.72
9119,0.38,-1.62,-0.12,-1.93,3.21,8.79
9128,1.31,0.38,-0.38,-1.85,3.46,8.89
9137,1.31,0.38,-0.38,-1.67,4.42,8.39
9148,-1.25,2.62,-0.75,-1.99,2.51,9.20
9159,3.69,2.75,-0.56,-1.95,4.39,8.39
9170,-1.62,1.31,0.50,-1.86,3.28,8.55
9179,3.75,3.19,-1.06,-2.49,4.21,8.73
9187,-0.25,2.69,-1.56,-2.41,3.29,8.68
9198,0.69,2.19,-2.12,-2.42,3.24,8.62
9209,3.44,3.06,-2.31,-2.38,3.90,8.39
9220,3.00,3.44,-1.06,-2.56,3.49,8.70
9228,1.19,2.62,1.25,-2.44,3.42,8.34
9237,1.19,2.62,1.25,-2.87,3.75,8.45
9248,4.88,1.62,1.69,-2.85,3.49,8.43
9259,5.06,1.12,0.25,-2.51,3.71,8.61
9270,3.50,0.44,-0.12,-2.57,3.39,8.67
9279,4.75,1.00,-0.75,-2.42,4.02,8.56
9287,4.75,1.00,-0.75,-1.86,3.60,8.60
9298,4.19,1.56,-2.12,-2.14,3.44,8.54
9309,5.19,0.50,-1.25,-1.59,3.34,8.58
9320,5.06,2.62,-2.50,-2.34,3.42,8.70
9329,7.94,3.12,-1.31,-2.41,4.08,8.69
9337,7.94,3.12,-1.31,-2.30,3.25,8.68
9348,7.12,3.56,-2.50,-2.11,3.77,8.64
9359,9.06,3.81,-2.25,-2.40,3.89,8.25
9370,7.25,4.88,-2.62,-2.53,3.50,8.61
9378,9.75,5.75,-2.75,-2.21,4.24,8.71
9387,9.75,5.75,-2.75,-1.78,3.53,8.51
9398,7.31,5.56,-3.81,-1.99,3.63,8.56
9409,10.06,5.62,-4.19,-2.18,3.88,8.50
9420,12.38,5.75,-4.25,-2.31,4.02,8.48
9429,9.12,5.94,-4.75,-2.07,3.34,8.44
9437,9.12,5.94,-4.75,-2.16,3.33,8.60
9448,14.44,9.50,-4.62,-2.35,3.55,8.55
9460,12.25,11.62,-5.31,-2.40,3.75,8.43
9470,14.06,13.75,-5.12,-2.34,3.66,8.55
9479,15.56,15.62,-4.44,-2.13,3.92,8.58
9487,15.56,15.62,-4.44,-2.67,3.43,8.61
9499,18.88,18.25,-2.69,-2.55,3.95,8.54
9510,20.00,19.12,-4.12,-2.29,3.53,8.46
9520,22.88,21.94,-5.19,-2.85,3.65,8.42
9529,24.50,24.62,-5.56,-2.87,3.44,8.34
9537,24.50,24.62,-5.56,-2.59,3.80,8.20
9549,30.81,37.00,-6.56,-2.74,3.22,7.92
9559,33.50,46.19,-8.81,-3.11,3.56,8.37
9570,40.25,51.56,-9.50,-3.15,4.62,8.18
9579,39.12,55.81,-11.00,-1.99,4.33,8.56
9587,39.12,55.81,-11.00,-2.09,4.48,7.52
9599,45.69,69.00,-18.19,-2.03,4.18,8.11
9609,49.19,76.69,-23.06,-2.17,4.63,8.24
9620,51.25,82.75,-28.25,-2.93,4.80,8.38
9629,54.06,87.56,-30.31,-2.71,5.09,7.75
9637,54.06,87.56,-30.31,-2.35,4.96,7.79
9649,54.12,106.88,-38.50,-2.80,4.37,7.90
9659,64.06,116.06,-43.44,-3.93,4.42,8.04
9670,72.75,122.62,-48.81,-4.43,6.00,7.27
9679,56.62,133.00,-53.81,-4.15,5.57,7.08
9687,56.62,133.00,-53.81,-4.03,4.44,7.44
9699,49.06,161.56,-67.62,-4.16,4.92,7.24
9709,45.94,176.56,-76.50,-4.72,5.97,6.84
9720,18.75,190.69,-82.75,-5.08,6.12,-0.01
9729,2.38,203.00,-86.69,-5.43,5.91,7.53
9737,2.38,203.00,-86.69,-5.42,5.61,8.19
9748,-18.62,221.81,-85.88,-4.75,4.53,9.25
9759,-3.00,233.06,-88.62,-5.48,2.73,11.92
9770,35.94,244.06,-91.81,-6.26,3.69,11.29
9779,86.00,253.44,-94.81,-6.78,5.02,9.33
9787,86.00,253.44,-94.81,-6.78,5.02,9.33
9799,118.12,273.75,-111.06,-7.25,6.38,7.75
9809,117.50,284.25,-0.06,-7.38,4.99,7.99
9820,125.75,290.88,-129.69,-7.94,4.80,8.66
9829,165.12,285.56,-137.38,-7.88,4.62,9.30
9837,165.12,285.56,-137.38,-8.77,3.82,7.79
9849,250.12,318.62,-181.19,-9.10,-1.16,6.18
9859,299.38,310.81,-181.44,-14.19,15.72,18.60
9870,101.50,129.69,-145.31,-29.37,14.22,34.41
9879,61.62,-88.56,-68.69,-1.19,-0.01,-0.01
9887,61.62,-88.56,-68.69,-13.99,14.24,22.43
9899,-4.75,-242.69,-5.38,2.51,5.73,6.03
9909,-60.56,-197.94,-21.88,1.89,0.04,5.33
9920,-40.62,-191.12,-10.94,1.49,1.55,5.16
9930,-16.75,-202.44,17.88,1.32,3.54,4.86
9937,-16.75,-202.44,17.88,1.32,3.54,4.86
9948,-28.88,-202.62,64.75,1.30,7.51,6.62
9959,-48.38,-206.25,82.00,-0.65,7.92,8.59
9970,-66.88,-221.75,100.94,-3.08,6.68,9.26
9980,-84.06,-239.38,117.88,-2.28,3.76,7.22
9987,-84.06,-239.38,117.88,-1.31,1.25,5.06
9998,-72.56,-241.88,128.81,-0.99,-0.24,4.10
10009,-56.94,-234.38,120.56,-4.21,0.89,5.74
10020,-47.50,-233.56,112.25,-5.35,2.60,6.97
10030,-46.69,-238.31,108.25,-5.77,3.38,7.77
10037,-46.69,-238.31,108.25,-4.48,4.24,8.00
10048,-48.75,-235.19,107.25,-5.17,4.86,8.68
10060,-56.31,-222.31,106.69,-6.38,5.60,9.86
10070,-62.38,-213.38,108.88,-7.88,5.78,10.89
10080,-65.25,-6.00,-0.06,-10.15,5.94,11.45
10087,-65.25,-214.00,110.12,-10.15,5.94,11.45
10099,-62.19,-225.31,104.50,-10.25,7.50,10.46
10110,-66.38,-223.62,105.19,-10.15,9.38,11.06
10120,-71.12,-219.81,108.62,-11.02,10.33,12.16
10130,-74.81,-220.88,116.44,-11.92,11.76,13.03
10137,-74.81,-220.88,116.44,-11.92,11.76,13.03
10149,-88.38,-227.00,140.06,-10.92,10.62,10.55
10160,-93.56,-220.50,147.50,-10.76,9.51,10.19
10170,-93.38,-214.38,150.94,-10.98,8.63,10.22
10180,-88.19,-209.69,149.94,-11.11,7.32,9.86
10187,-88.19,-209.69,149.94,-10.98,6.61,9.25
10199,-74.25,-195.19,138.31,-11.02,5.94,8.81
10210,-68.50,-182.88,128.88,-11.26,5.57,8.31
10220,-63.00,-168.06,115.69,-12.22,3.82,6.83
10230,-54.75,-154.12,100.31,-12.58,3.04,5.42
10237,-54.75,-154.12,100.31,-12.58,3.04,5.42
10249,-22.88,-122.56,61.69,-12.52,0.46,0.82
10260,-0.06,-103.50,40.94,-13.42,0.86,0.80
10270,18.25,-88.19,26.19,-13.43,2.12,0.62
10280,23.94,-72.69,16.44,-12.54,2.69,-0.01
10287,23.94,-72.69,16.44,-12.54,2.69,-0.01
10299,15.88,-26.44,2.31,-11.09,3.01,-1.16
10310,12.06,-0.81,-2.94,-10.72,3.26,-0.61
10320,13.06,21.44,-7.44,-10.20,4.69,0.46
10330,16.81,37.19,-9.25,-9.19,5.47,0.64
10337,16.81,37.19,-9.25,-9.19,5.47,0.64
10348,12.38,77.56,-10.19,-8.15,6.04,1.31
10360,9.00,97.12,-6.06,-6.70,6.69,3.75
10370,1.69,115.94,-4.06,-6.01,5.37,4.57
10380,4.81,125.62,-1.19,-5.06,5.49,4.94
10387,4.81,125.62,-1.19,-5.06,5.49,4.94
10399,-1.56,70.12,-5.50,16.71,10.75,24.83
10410,-51.81,48.69,-44.81,22.19,-0.40,18.98
10420,-24.44,106.56,-59.88,23.14,-1.88,-9.15
10430,-5.25,234.19,-53.81,-12.57,10.02,12.40
10437,-5.25,234.19,-53.81,-12.57,10.02,12.40
10449,-36.88,147.00,35.31,-14.61,-3.37,19.03
10460,-8.38,107.62,-6.62,-6.99,-9.70,13.17
10470,35.19,97.94,-42.94,-7.25,-3.35,13.78
10480,59.00,78.44,-43.38,-5.00,2.56,13.34
10487,59.00,78.44,-43.38,-5.00,2.56,13.34
10499,41.38,75.25,-6.75,-1.27,5.96,9.70
10510,28.69,83.44,-2.56,-3.16,3.41,10.24
10520,36.69,66.44,-17.00,-4.26,2.08,10.26
10530,46.94,46.88,-25.62,-1.95,4.77,9.10
10537,46.94,46.88,-25.62,-1.95,4.77,9.10
10549,31.12,46.69,-14.25,-3.81,8.04,10.36
10560,13.44,35.25,-2.88,-2.97,4.80,9.53
10570,6.44,23.81,-3.81,-3.15,3.75,10.58
10580,13.06,12.38,-8.44,-3.43,5.00,11.02
10587,13.06,12.38,-8.44,-3.43,5.00,11.02
10599,0.62,10.06,-11.38,-3.13,3.19,9.66
10610,8.00,9.31,-6.25,-3.64,4.40,10.32
10620,5.38,2.06,0.94,-2.76,4.37,9.61
10629,-0.31,3.50,3.88,-1.87,3.37,8.98
10637,-0.31,3.50,3.88,-1.87,3.37,8.98
10649,1.88,4.81,4.69,-3.19,3.02,8.98
10660,6.19,0.12,7.31,-3.50,4.20,9.01
10670,0.50,-2.38,10.25,-2.72,3.51,8.82
10679,0.50,-2.38,10.25,-2.51,3.72,8.68
10687,-1.19,-1.88,17.06,-2.51,3.72,8.68
10699,4.44,0.94,22.25,-4.23,4.16,8.70
10710,-1.75,0.56,20.06,-3.69,3.42,8.87
10721,3.56,-1.38,13.12,-3.28,3.92,8.58
10729,3.56,-1.38,13.12,-2.41,3.94,8.72
10737,5.19,-5.88,4.69,-2.41,3.94,8.72
10749,3.50,-3.75,-0.62,-1.59,3.16,8.84
10760,12.00,-1.38,-1.81,-2.05,4.03,8.84
10771,3.75,-1.31,-0.75,-1.63,2.96,9.07
10779,3.75,-1.31,-0.75,-1.51,3.21,8.63
10787,4.62,0.25,-0.50,-1.51,3.21,8.63
10799,3.25,2.00,-0.19,-2.14,3.49,8.91
10810,5.12,2.75,-0.88,-2.17,3.67,8.76
10821,6.94,3.94,-0.44,-2.44,3.71,8.58
10830,6.94,3.94,-0.44,-2.43,3.74,8.52
10837,5.19,4.88,0.19,-2.43,3.74,8.52
10849,5.94,5.06,0.19,-3.17,3.84,8.51
10861,6.19,3.81,0.19,-2.71,3.65,8.33
10871,6.88,3.88,0.25,-2.63,3.73,8.31
10879,6.88,3.88,0.25,-2.59,3.89,8.55
10887,6.88,4.31,0.50,-2.59,3.89,8.55
10899,6.00,2.50,0.81,-2.27,3.86,8.35
10911,6.62,2.81,0.69,-2.68,3.90,8.64
10921,5.25,2.38,1.19,-1.96,3.62,8.43
10930,5.25,2.38,1.19,-1.86,3.72,8.49
10937,5.75,1.75,0.94,-1.86,3.72,8.49
10949,7.06,3.50,-0.31,-1.79,3.88,8.32
10961,5.94,4.25,-0.94,-2.40,3.59,8.87
10971,7.44,4.38,-1.31,-1.66,3.09,8.56
10978,7.44,4.38,-1.31,-2.26,3.49,8.67
10987,9.69,6.31,-0.81,-2.26,3.49,8.67
10998,6.62,6.38,-0.50,-2.14,3.34,8.31
11011,9.75,8.88,-1.50,-2.97,4.41,8.55
11021,8.69,6.69,-1.56,-2.09,3.93,8.19
11030,8.69,6.69,-1.56,-2.64,3.82,8.78
11037,8.62,8.06,-2.00,-2.64,3.82,8.78
11048,9.56,7.75,-2.56,-2.92,3.98,8.45
11060,10.00,6.56,-2.12,-2.14,4.07,8.50
11070,9.62,8.00,-2.94,-2.33,3.69,8.29
11079,9.62,8.00,-2.94,-2.32,4.08,8.59
11087,11.00,8.69,-3.12,-2.32,4.08,8.59
11098,12.50,10.25,-4.00,-2.68,4.11,8.55
11111,10.81,-0.06,-0.06,-2.40,3.87,8.33
11120,11.56,12.19,-4.69,-2.63,3.99,8.51
11129,11.56,12.19,-4.69,-2.44,3.80,8.26
11137,12.69,12.50,-4.38,-2.44,3.80,8.26
11148,14.38,14.56,-4.25,-2.91,3.85,8.25
11161,15.81,16.19,-4.12,-2.21,3.79,8.37
11171,18.19,18.62,-4.19,-2.54,3.78,8.44
11178,18.19,18.62,-4.19,-2.54,3.78,8.44
11187,20.69,20.00,-3.81,-2.72,4.14,8.27
11197,22.50,22.31,-3.50,-2.72,4.07,8.34
11210,23.94,24.00,-3.44,-2.89,4.08,8.29
11221,28.25,29.06,-6.19,-2.65,4.14,8.36
11228,28.25,29.06,-6.19,-2.65,4.14,8.36
11237,30.31,32.75,-8.12,-2.99,3.79,7.55
11248,32.06,37.69,-10.31,-3.57,4.12,8.41
11261,39.06,45.69,-11.81,-2.40,4.71,8.88
11271,44.50,50.50,-13.25,-3.19,5.47,7.43
11278,44.50,50.50,-13.25,-3.19,5.47,7.43
11287,39.56,54.81,-16.19,-1.35,3.65,7.34
11299,52.19,64.25,-19.69,-2.03,4.09,7.81
11311,53.19,74.44,-28.06,-3.68,4.97,8.08
11321,59.38,76.62,-29.12,-3.29,5.67,7.36
11328,59.38,76.62,-29.12,-3.29,5.67,7.36
11337,60.12,85.44,-33.00,-3.47,4.77,8.02
11348,63.56,94.25,-39.44,-3.70,4.58,7.94
11361,53.06,104.44,-44.31,-3.93,4.83,7.42
11371,57.94,126.31,-56.75,-4.01,5.09,7.40
11378,57.94,126.31,-56.75,-4.02,5.10,6.78
11387,59.62,140.50,-64.69,-4.02,5.10,6.78
11399,53.44,156.56,-72.81,-4.21,4.99,6.95
11411,33.31,169.88,-77.88,-4.62,5.94,6.94
11421,11.50,203.69,-86.94,-5.05,6.13,7.02
11428,11.50,203.69,-86.94,-4.96,6.35,7.16
11437,-6.50,219.56,-88.19,-4.96,6.35,7.16
11448,-4.88,234.56,-91.06,-5.80,3.71,11.49
11461,7.12,246.19,-94.38,-6.11,3.41,11.68
11471,101.50,257.56,-102.50,-6.90,5.87,10.40
11479,101.50,257.56,-102.50,-7.08,5.74,9.17
11487,121.44,268.38,-110.25,-7.08,5.74,9.17
11499,130.62,280.00,-116.12,-7.43,5.17,8.90
11511,135.94,287.62,-126.06,-7.69,5.04,8.81
11521,185.81,285.44,-145.62,-7.87,2.83,9.51
11529,185.81,285.44,-145.62,-7.87,2.83,9.51
11537,230.12,292.75,-172.00,-8.44,2.49,8.44
11548,314.62,317.75,-194.81,-13.55,11.22,11.19
11561,280.94,257.12,-180.25,-29.84,18.20,38.58
11571,35.19,-149.38,-34.62,-23.03,18.50,29.54
11578,35.19,-149.38,-34.62,-23.03,18.50,29.54
11587,-16.69,-280.88,-9.31,0.19,7.17,12.14
11599,-42.56,-288.88,-3.75,2.09,-0.01,-0.01
11611,-79.94,-245.12,-10.19,2.33,-0.36,3.14
11627,-30.00,-226.38,26.19,2.53,1.94,2.93
11629,-30.00,-226.38,26.19,2.53,1.94,2.93
11637,-24.69,-223.75,55.38,2.09,3.97,3.77
11648,-32.81,-223.62,79.19,1.63,5.55,4.48
11661,-49.94,-222.88,97.25,0.12,6.48,7.25
11671,-81.62,-223.25,113.69,-2.54,5.79,7.74
11677,-81.62,-223.25,113.69,-2.54,5.79,7.74
11687,-95.00,-232.19,123.00,-1.96,1.55,6.38
11699,-91.75,-237.06,127.06,-3.58,-0.53,5.57
11711,-83.44,-236.56,121.50,-4.01,0.21,6.38
11727,-56.88,-243.12,108.69,-5.69,3.31,7.57
11737,-54.62,-244.44,110.31,-5.19,4.17,7.44
11749,-56.12,-238.50,109.88,-4.63,5.21,7.75
11761,-64.81,-224.62,110.62,-8.41,5.15,10.68
11772,-71.06,-210.19,109.94,-9.33,5.27,10.71
11777,-71.06,-210.19,109.94,-9.33,5.27,10.71
11787,-66.38,-211.06,103.81,-10.23,6.79,11.10
11799,-69.62,-215.00,99.38,-11.26,9.07,11.59
11811,-75.12,-218.06,99.50,-11.29,12.19,12.20
11827,-82.62,-220.25,104.56,-11.38,12.35,11.54
11830,-96.38,-222.25,115.12,-11.38,12.35,11.54
11837,-104.50,-222.56,128.50,-11.11,11.60,11.02
11849,-108.75,-217.62,141.88,-10.70,11.72,10.22
11861,-117.62,-205.62,147.12,-11.34,7.55,9.72
11871,-112.44,-197.38,147.19,-11.24,7.06,9.40
11877,-105.31,-193.00,142.38,-11.24,7.06,9.40
11888,-99.50,-185.31,134.00,-10.87,6.17,8.37
11899,-99.50,-185.31,134.00,-10.66,4.74,6.26
11911,-90.75,-172.50,123.25,-10.97,3.63,4.21
11922,-68.00,-137.38,96.06,-11.08,2.97,2.83
11927,-68.00,-137.38,96.06,-11.08,2.97,2.83
11937,-39.88,-91.69,62.81,-11.91,1.79,0.08
11948,-39.88,-91.69,62.81,-12.32,1.89,-0.71
11961,-20.88,-69.31,44.56,-12.31,1.79,-2.48
11971,-9.06,-45.81,26.56,-13.09,2.96,-1.63
11976,10.19,5.62,-1.62,-13.09,2.96,-1.63
11986,12.38,25.19,-6.31,-13.75,4.65,-0.36
11999,12.38,25.19,-6.31,-12.80,4.84,-0.08
12011,5.50,40.75,-8.19,-11.17,4.64,1.54
12021,8.19,54.94,-11.44,-8.11,7.08,0.95
12026,19.44,62.56,-11.88,-8.11,7.08,0.95
12036,7.44,99.44,-11.88,-9.28,3.59,5.79
12048,7.44,99.44,-11.88,-6.27,5.86,5.39
12061,25.69,100.81,-3.69,1.56,3.78,11.17
12071,23.25,106.62,-0.31,13.44,8.29,23.32
12077,-2.38,88.94,3.88,13.44,8.29,23.32
12087,-19.06,48.12,-35.31,16.83,1.68,21.66
12099,-19.06,48.12,-35.31,13.86,-1.67,-6.45
12109,-6.50,110.31,-36.81,-17.10,3.03,22.52
12120,9.62,183.50,-41.88,-12.63,-3.77,17.92
12126,9.44,164.75,-0.69,-12.63,-3.77,17.92
12137,-9.56,114.38,5.25,-7.41,-7.68,14.31
12149,28.50,76.19,-26.00,-2.81,5.84,11.29
12160,55.81,65.50,-36.44,-2.22,7.12,-0.01
12171,46.00,67.56,-26.06,-3.21,1.81,9.46
12177,36.31,63.44,-10.06,-3.21,1.81,9.46
12187,25.06,64.25,-6.38,-3.21,1.85,9.73
12199,32.88,55.06,-14.38,-3.14,4.01,9.76
12210,38.62,49.19,-17.88,-4.92,5.36,10.62
12227,29.00,48.44,-12.69,-4.67,3.91,10.93
12229,18.81,39.88,-2.81,-4.67,3.91,10.93
12237,11.94,23.56,1.00,-3.93,3.74,10.58
12249,15.44,8.56,-1.12,-2.33,4.73,9.47
12260,18.19,4.44,-0.06,-3.08,3.70,9.62
12278,12.62,4.25,-2.44,-3.00,3.39,9.49
12288,14.12,2.56,0.50,-2.91,3.74,9.27
12299,12.56,1.00,1.56,-2.89,3.36,9.17
12310,9.94,1.50,1.88,-2.47,3.57,8.68
12321,10.38,2.00,2.69,-2.47,4.01,8.45
12327,9.31,3.62,2.94,-2.47,4.01,8.45
12338,10.75,3.75,4.75,-2.63,3.52,8.70
12349,8.00,1.62,6.62,-2.60,4.19,8.33
12360,7.56,-1.00,9.31,-2.38,3.32,8.83
12378,0.69,-2.88,11.56,-2.22,4.12,8.40
12388,1.06,-3.19,12.44,-2.40,3.28,8.82
12399,-2.00,-2.19,15.25,-2.18,4.21,8.75
12410,0.56,-3.62,13.69,-2.96,4.15,9.13
12427,0.19,-2.50,11.44,-3.25,3.19,9.21
12430,4.38,-4.44,9.44,-3.25,3.19,9.21
12438,-0.50,-2.62,7.38,-2.71,4.66,8.09
12450,4.56,-2.38,7.62,-2.29,3.82,8.99
12460,0.75,-2.62,9.94,-3.08,3.81,8.56
12478,4.62,-1.44,5.31,-3.13,3.60,8.42
12487,3.62,-1.25,3.56,-2.84,3.60,8.54
12499,4.88,-1.00,2.31,-1.78,3.29,8.75
12510,1.62,-0.69,1.06,-1.93,3.37,8.66
12528,2.44,-0.75,2.81,-2.71,4.07,8.88
12537,6.19,1.00,2.31,-2.37,3.71,8.52
12549,2.94,-0.19,1.81,-2.14,3.40,8.86
12560,3.12,-0.69,0.62,-2.08,3.92,8.59
12578,8.25,1.12,0.31,-1.92,4.16,8.47
12588,5.44,0.69,1.50,-2.50,3.49,8.69
12599,4.12,1.50,1.69,-2.06,3.93,8.47
12610,5.56,1.31,-0.31,-2.14,3.72,8.41
12629,5.56,3.00,-0.69,-2.67,4.52,8.28
12638,5.19,3.19,-0.81,-2.34,3.58,8.46
12648,3.19,2.06,-1.69,-2.80,4.41,8.31
12660,4.94,2.31,-2.50,-2.39,3.72,8.48
12678,6.06,2.00,-2.44,-2.32,3.60,8.57
12688,2.12,1.00,-0.56,-2.10,3.21,8.60
12700,4.25,2.25,-0.56,-2.47,3.89,8.55
12710,7.12,2.75,-2.12,-2.34,3.24,8.68
12728,9.31,2.81,-2.50,-2.06,4.28,8.51
12738,5.06,2.81,-3.00,-2.00,3.51,8.59
12748,7.25,3.69,-2.50,-2.20,4.32,8.49
12760,9.31,4.12,1.44,-2.00,3.52,8.32
12770,4.88,5.94,0.38,-2.11,3.35,8.84
12778,9.44,7.31,0.88,-2.86,3.86,8.41
12788,9.62,9.50,0.75,-2.56,4.07,8.20
12799,9.88,9.38,0.12,-2.48,3.61,8.63
12810,11.44,9.81,-1.75,-2.37,3.82,8.51
12829,15.00,13.50,-4.81,-2.75,4.21,8.35
12838,14.69,14.94,-4.62,-2.58,3.68,8.58
12847,15.62,15.88,-5.31,-2.71,3.98,8.48
12860,18.00,17.88,-5.94,-2.35,3.81,8.29
12879,21.88,21.50,-4.81,-2.54,3.67,8.40
12889,23.31,23.62,-4.81,-2.60,4.02,8.40
12897,26.44,27.50,-5.25,-2.72,3.77,8.25
12910,27.19,31.00,-6.12,-2.64,3.85,8.29
12929,29.69,39.81,-8.19,-3.17,3.80,7.74
12938,30.88,46.06,-10.75,-2.42,3.42,8.11
12948,34.19,52.31,-14.50,-2.21,5.06,8.27
12960,40.62,56.06,-16.81,-2.21,4.46,8.13
12979,42.38,67.25,-20.50,-2.13,4.17,8.25
12988,45.81,74.50,-23.56,-2.04,4.80,8.51
12998,49.31,81.12,-26.94,-2.91,4.57,8.49
13010,50.31,87.00,-31.88,-3.30,5.25,7.61
13028,51.19,93.19,-34.56,-4.02,4.67,7.48
13031,50.31,101.56,-39.19,-4.02,4.67,7.48
13038,64.44,113.00,-44.31,-4.14,5.91,7.44
13047,64.50,123.00,-0.06,-4.03,5.37,7.09
13059,51.88,135.81,-54.44,-4.20,4.75,7.07
13072,45.56,150.12,-61.81,-4.69,5.52,6.74
13079,47.44,165.25,-71.88,-4.69,5.52,6.74
13089,44.56,179.00,-81.06,-4.58,5.65,6.98
13099,21.06,193.06,-87.69,-4.87,5.71,7.08
13110,8.75,205.62,-94.06,-5.48,5.59,8.26
13122,1.69,214.69,-99.31,-5.50,3.25,11.77
13129,-12.50,226.00,-100.44,-5.50,3.25,11.77
13139,-4.25,238.69,-100.88,-5.90,3.56,10.88
13147,45.25,249.69,-101.00,-5.56,3.44,9.99
13160,95.00,259.69,-107.44,-7.42,5.67,9.39
13173,115.56,265.56,-119.38,-7.61,5.00,9.70
13179,118.06,279.12,-128.88,-7.61,5.00,9.70
13189,131.06,287.12,-135.69,-8.33,4.25,10.28
13198,173.62,280.12,-142.94,-7.90,7.11,9.65
13210,206.62,269.56,-151.44,-7.95,3.68,7.77
13223,230.06,293.25,-169.00,-26.72,15.27,36.67
13229,256.56,330.12,-196.38,-26.72,15.27,36.67
13239,114.75,203.44,-163.81,-29.59,17.12,32.92
13247,56.88,-40.69,-71.19,-7.57,12.00,19.00
13260,8.31,-238.50,-8.75,3.69,7.36,13.10
13273,-18.25,-257.88,-9.00,0.23,-1.00,6.43
13280,-63.81,-195.88,-18.50,0.23,-1.00,6.43
13289,-43.25,-187.88,-10.25,0.56,1.16,6.05
13298,-3.50,-213.31,18.38,1.40,5.29,5.95
13310,3.25,-229.38,45.12,1.78,6.23,5.40
13323,-12.44,-233.12,64.25,1.08,5.02,5.70
13329,-37.19,-231.62,77.44,1.08,5.02,5.70
13339,-54.88,-228.94,87.62,-1.04,1.86,6.49
13347,-63.25,-227.69,96.12,-1.50,0.39,5.84
13360,-56.69,-229.62,103.31,-1.78,-0.44,4.92
13372,-42.31,-230.38,105.00,-4.19,3.31,7.30
13379,-32.81,-225.88,100.94,-4.19,3.31,7.30
13389,-34.56,-223.12,96.44,-5.32,4.17,8.72
13397,-42.88,-226.06,98.19,-5.28,4.34,8.73
13409,-52.62,-228.06,101.88,-5.76,3.21,8.48
13428,-54.75,-224.69,101.25,-7.88,4.55,9.47
13430,-55.25,-217.44,98.06,-7.88,4.55,9.47
13439,-56.62,-215.00,93.44,-9.60,5.28,10.06
13447,-51.50,-217.62,89.44,-9.46,7.11,9.94
13459,-47.94,-220.19,89.62,-8.90,7.23,9.04
13472,-52.94,-214.19,91.31,-11.48,11.75,12.62
13479,-49.12,-204.50,95.81,-11.48,11.75,12.62
13489,-47.75,-201.31,106.69,-11.99,13.00,13.00
13497,-62.44,-205.31,122.00,-12.26,12.46,12.47
13509,-81.44,-209.19,136.12,-11.52,9.32,10.43
13528,-92.00,-209.75,145.38,-11.25,7.26,10.09
13530,-96.81,-206.56,149.81,-11.25,7.26,10.09
13539,-98.56,-201.69,148.62,-11.22,6.44,10.09
13547,-96.69,-198.75,143.12,-10.87,5.86,9.28
13559,-91.00,-195.50,136.06,-10.56,5.98,8.50
13578,-85.75,-188.31,128.38,-10.92,4.90,6.21
13579,-81.88,-176.94,120.69,-10.92,4.90,6.21
13590,-74.50,-165.25,112.94,-10.74,3.83,4.85
13598,-64.62,-151.88,103.50,-10.61,3.00,3.44
13609,-52.31,-133.25,89.75,-11.02,2.33,2.26
13621,-38.19,-111.31,73.88,-11.64,1.81,-1.01
13629,-20.69,-89.62,59.62,-11.64,1.81,-1.01
13639,-5.25,-63.50,46.25,-12.53,2.65,-0.93
13647,4.00,-39.81,34.06,-13.20,2.79,-1.12
13659,5.38,-18.69,25.19,-13.21,2.48,-1.54
13678,7.75,1.06,17.06,-11.95,3.23,-1.96
13680,12.00,23.06,9.19,-11.95,3.23,-1.96
13690,10.19,50.69,-1.50,-11.52,4.55,-0.74
13698,7.75,78.44,-10.00,-8.45,6.37,1.57
13709,-8.00,98.31,-14.12,-12.46,0.34,7.85
13722,5.06,103.00,-15.44,8.33,2.14,21.75
13730,1.12,88.81,-13.81,8.33,2.14,21.75
13740,-21.44,83.25,-30.06,11.58,4.81,22.75
13747,-30.00,68.00,-47.06,14.33,0.54,11.10
13759,-14.00,105.19,-56.62,-1.91,0.72,3.39
13777,1.81,173.81,-59.19,-12.27,3.00,-0.01
13780,1.31,171.62,-26.62,-12.27,3.00,19.96
13790,-4.75,123.69,-3.44,-5.39,-6.11,12.40
13798,9.94,102.75,-24.19,-6.05,-2.83,12.69
13808,38.25,92.88,-41.62,-4.94,2.86,12.82
13821,48.06,83.19,-37.50,-4.51,5.19,12.71
13830,50.50,68.50,-20.12,-0.35,6.27,8.71
13840,39.25,70.06,-11.50,-1.80,3.54,8.84
13847,35.81,72.62,-14.56,-3.47,2.52,10.03
13858,40.94,63.19,-19.94,-2.21,3.09,8.92
13871,38.62,57.81,-21.31,-2.94,4.64,9.24
13880,40.38,55.31,-14.88,-4.04,6.84,11.69
13890,32.25,44.25,-5.19,-5.81,6.63,12.09
13897,20.19,25.38,0.56,-2.88,3.37,10.50
13908,22.94,9.06,0.38,-3.60,5.21,10.49
13921,28.38,4.06,-0.19,-2.71,5.52,9.39
13929,11.25,5.06,-2.88,-3.05,3.70,9.83
13939,13.06,5.19,-0.50,-2.85,3.46,9.58
13947,11.75,6.25,1.62,-2.95,3.81,9.39
13958,10.06,5.50,3.19,-2.47,3.98,8.95
13971,4.38,5.88,5.75,-2.93,3.00,8.94
13979,-0.75,5.25,10.12,-3.47,3.34,8.65
13989,4.50,4.06,10.94,-3.59,3.91,8.50
13997,3.19,1.00,11.56,-2.18,3.46,8.61
14008,3.69,-0.81,17.19,-3.33,3.54,8.33
14021,8.12,0.69,18.00,-3.45,4.56,8.74
14029,2.12,-0.44,16.19,-2.91,2.94,8.59
14039,4.81,-1.88,13.88,-2.50,3.68,8.62
14047,3.44,-1.25,9.88,-2.69,3.65,8.79
14058,7.50,-2.06,7.25,-2.61,4.29,8.61
14071,3.62,-3.44,3.25,-1.48,3.65,8.21
14079,5.62,-3.31,0.19,-2.16,3.54,9.24
14089,7.31,-1.06,-1.88,-2.09,4.38,8.42
14098,8.44,-1.12,-0.75,-2.21,4.72,8.70
14108,2.44,-0.38,0.00,-2.48,3.66,8.91
14121,2.81,0.44,-0.19,-2.52,3.22,8.81
14130,3.88,0.69,-0.06,-2.44,4.04,8.66
14140,1.81,1.06,3.12,-2.53,3.47,8.49
14147,2.12,2.12,5.50,-2.94,3.95,8.38
14158,2.69,2.94,3.56,-2.58,3.55,8.62
14170,2.81,1.50,2.38,-2.13,3.53,8.45
14180,4.44,2.31,-0.31,-2.22,3.63,8.61
14189,6.50,2.06,-0.56,-2.30,3.62,8.54
14197,6.56,3.00,-0.94,-2.65,3.76,8.63
14207,7.31,1.94,-0.12,-1.84,3.49,8.42
14220,4.31,1.56,0.06,-2.16,3.74,8.55
14230,5.19,2.38,0.00,-2.15,3.75,8.66
14239,5.81,2.38,0.00,-2.36,3.80,8.42
14246,5.12,3.69,0.12,-2.67,4.01,8.31
14257,4.69,2.62,-0.44,-1.89,3.42,8.63
14269,3.25,2.50,-0.25,-1.58,3.52,8.33
14279,4.56,5.19,-0.44,-2.20,3.84,8.58
14289,4.94,4.88,-0.19,-1.86,3.02,8.49
14296,8.69,5.44,-1.06,-2.78,4.72,8.68
14306,7.38,4.94,-0.94,-2.18,3.42,8.48
14316,7.06,4.81,-0.62,-2.10,3.74,8.50
14329,5.62,4.44,-1.12,-2.43,3.67,8.57
14339,7.06,5.00,-1.50,-2.12,3.28,8.76
14347,9.38,5.12,-1.62,-2.50,3.39,8.55
14358,4.50,5.19,-1.88,-2.40,4.04,8.49
14368,6.75,4.31,-1.81,-2.30,3.42,8.57
14379,8.94,4.62,-2.19,-2.46,4.25,8.33
14389,8.31,4.50,-2.00,-2.49,3.79,8.46
14397,8.38,5.06,-2.25,-2.42,3.76,8.45
14407,8.81,5.88,-2.50,-2.44,3.65,8.46
14420,10.31,7.50,-2.81,-2.32,3.96,8.21
14429,8.56,7.75,-3.00,-2.51,3.87,8.37
14439,9.31,8.50,-4.12,-2.40,3.85,8.44
14447,10.44,8.75,-4.50,-2.19,3.59,8.26
14457,12.62,9.62,-4.50,-2.48,3.74,8.46
14470,11.19,9.44,-5.00,-2.16,3.70,8.46
14479,13.62,10.06,-5.81,-2.00,3.96,8.49
14489,14.44,12.44,-6.19,-2.15,4.14,8.44
14497,15.38,13.06,-5.88,-2.35,3.71,8.49
14507,15.75,15.69,-6.38,-2.36,3.90,8.46
14518,18.12,17.69,-6.38,-2.30,3.85,8.50
14529,20.38,19.50,-6.06,-2.28,3.93,8.46
14539,24.56,22.31,-6.19,-2.86,3.60,8.40
14547,27.75,26.38,-6.31,-2.88,3.87,8.30
14557,31.62,29.31,-6.06,-2.47,4.02,8.11
14569,33.19,34.44,-7.38,-3.02,3.16,7.39
14579,35.81,43.06,-9.69,-2.46,3.97,7.99
14589,41.56,49.12,-11.44,-3.51,4.65,8.44
14597,43.19,53.12,-12.81,-2.73,4.28,8.20
14607,46.19,59.06,-16.31,-2.51,4.26,6.91
14617,50.44,67.75,-19.94,-2.39,4.11,8.33
14630,54.94,75.38,-23.12,-2.91,4.52,7.81
14640,57.62,83.19,-26.62,-3.52,5.03,7.81
14647,61.81,89.75,-28.50,-3.34,5.11,7.79
14657,61.44,96.38,-30.06,-2.65,5.11,7.82
14667,60.00,105.19,-36.12,-4.17,5.70,7.32
14680,57.75,113.50,-41.69,-3.98,5.48,7.34
14690,47.12,122.38,-46.69,-4.29,4.62,7.42
14697,49.56,131.25,-51.75,-3.68,5.10,7.29
14707,51.06,141.25,-59.88,-3.68,5.51,7.08
14717,44.88,155.69,-68.88,-4.77,6.05,6.77
14730,29.50,168.38,-74.25,-4.73,5.29,6.74
14739,21.19,182.38,-81.00,-4.37,5.36,7.67
14747,15.62,196.00,-86.38,-4.90,5.90,7.11
14757,14.75,207.62,-90.19,-1.98,-0.01,-0.01
14767,16.44,220.06,-94.19,-5.79,5.34,10.09
14779,34.19,232.75,-100.69,-6.54,5.27,11.17
14790,53.38,242.62,-104.12,-6.74,4.54,10.54
14797,83.62,256.00,-110.94,-6.45,5.62,9.48
14807,100.12,270.31,-122.81,-7.45,5.44,9.64
14817,122.25,285.00,-129.81,-7.91,6.37,8.95
14829,130.88,294.50,-135.44,-7.67,5.63,9.42
14839,149.00,294.12,-146.38,-8.69,5.20,10.71
14847,185.19,-0.06,-0.06,-7.85,7.18,8.82
14857,197.31,288.50,-167.19,-8.70,2.62,7.27
14867,238.19,331.62,-192.94,-15.02,15.35,23.63
14879,152.06,288.12,-187.38,-28.65,12.76,36.68
14888,65.88,90.06,-112.25,-26.19,19.21,29.36
14897,30.06,-153.62,-21.38,-4.90,10.60,17.95
14907,-2.88,-261.56,7.44,3.97,7.79,7.23
14917,-58.06,-219.88,5.06,1.98,2.82,6.34
14928,-89.94,-179.38,3.69,0.75,0.74,6.06
14938,-62.69,-190.19,24.88,1.52,1.87,4.44
14947,-33.69,-206.75,52.19,2.18,3.89,4.08
14957,-29.88,-209.62,70.69,2.23,4.30,4.58
14967,-42.31,-206.81,82.19,1.14,4.99,5.82
14978,-55.69,-208.25,91.50,-1.94,5.34,7.94
14988,-78.12,-217.31,102.19,-2.52,3.10,7.68
14997,-86.44,-230.19,112.00,-2.34,1.25,7.09
15007,-77.00,-240.06,116.88,-2.31,0.44,5.92
15017,-65.88,-240.38,116.62,-3.00,0.48,5.17
15028,-57.19,-236.56,112.19,-3.81,1.50,5.82
15038,-51.44,-231.69,107.75,-4.81,2.98,6.91
15047,-54.12,-231.88,103.75,-5.60,3.35,8.64
15057,-61.12,-229.50,98.12,-7.02,3.14,10.09
15067,-61.62,-227.88,93.19,-8.18,4.10,10.50
15078,-60.75,-231.44,89.81,-9.02,5.78,10.79
15088,-61.00,-231.69,85.44,-10.22,7.13,10.96
15097,-61.62,-235.75,82.94,-10.39,8.71,10.87
15107,-66.25,-244.00,86.62,-9.83,9.75,11.13
15117,-74.19,-244.44,96.31,-9.31,10.40,10.22
15128,-85.56,-238.38,108.00,-9.36,10.31,10.48
15138,-90.25,-231.38,118.50,-9.70,10.87,10.85
15147,-97.38,-225.50,126.44,-10.85,10.01,11.66
15157,-98.12,-222.69,133.94,-10.92,10.66,11.49
15167,-100.50,-221.12,140.62,-10.81,9.77,11.23
15178,-105.19,-216.44,143.62,-10.86,8.65,11.05
15188,-101.50,-212.00,144.38,-10.62,7.52,10.07
15197,-95.94,-204.88,141.69,-10.54,6.84,9.32
15207,-90.69,-192.81,135.38,-10.76,6.02,8.17
15217,-85.62,-175.62,123.69,-12.93,3.59,7.30
15228,-73.31,-158.44,110.25,-12.32,3.32,5.21
15238,-58.19,-145.12,95.81,-11.43,2.45,2.79
15247,-45.38,-120.94,75.00,-12.58,1.89,2.09
15257,-29.25,-99.25,54.12,-13.86,1.75,0.56
15267,-12.94,-82.50,34.81,-14.31,1.68,0.06
15278,0.75,-66.38,18.44,-13.78,1.66,-1.12
15287,11.31,-44.75,4.56,-13.61,2.80,-1.98
15297,17.06,-20.88,-3.31,-13.04,3.30,-2.03
15307,14.19,3.19,-7.81,-12.40,3.22,-1.88
15317,11.69,29.00,-13.81,-11.83,3.33,-1.50
15327,13.12,51.62,-21.00,-11.86,5.13,1.33
15337,16.88,66.50,-23.88,-8.25,7.95,0.69
15347,1.38,83.94,-26.50,-10.85,3.83,4.91
15357,7.25,95.81,-25.69,-5.70,6.95,3.89
15367,26.00,99.19,-20.88,-4.40,7.10,5.39
15377,-3.75,111.06,-21.44,3.73,2.56,13.45
15387,-8.69,84.19,-21.38,7.65,5.99,21.62
15397,-16.94,54.50,-30.50,17.08,3.96,20.79
15407,-14.38,42.69,-40.38,14.09,2.95,-5.01
15417,-23.38,117.88,-36.88,1.40,-3.40,-3.68
15427,-6.12,169.06,-30.12,-12.54,2.36,19.39
15437,-20.12,147.12,5.62,-9.43,-4.27,18.33
15447,-10.38,112.25,-5.94,-8.44,-6.69,14.04
15457,19.50,81.25,-29.94,-6.52,-4.94,12.97
15467,51.81,63.81,-33.69,-4.40,5.15,12.31
15477,53.44,56.88,-20.75,-1.74,6.32,10.91
15487,47.94,50.12,-7.12,0.13,5.58,8.28
15497,33.31,64.56,-5.88,-4.03,2.17,10.22
15507,42.19,55.62,-12.75,-2.80,3.73,9.36
15517,45.56,45.12,-16.75,-1.98,4.81,8.85
15527,42.06,45.69,-14.44,-3.15,5.75,9.28
15537,35.38,39.44,-6.50,-3.96,5.55,10.59
15547,23.94,31.00,-2.44,-3.29,4.67,9.06
15557,21.19,22.38,-3.50,-2.23,3.74,8.79
15567,25.12,20.38,-7.00,-4.32,5.50,10.93
15577,21.69,14.00,-5.94,-2.92,4.67,9.62
15587,8.75,8.19,-4.12,-2.16,3.31,9.01
15597,9.38,10.00,-3.94,-2.67,3.78,9.29
15607,9.94,9.19,-2.50,-2.88,3.55,9.28
15617,6.25,7.12,-1.62,-2.50,3.56,9.08
15627,5.75,6.38,-1.50,-2.11,3.29,8.43
15637,6.94,8.88,-1.12,-2.87,3.75,8.73
15647,9.06,6.50,0.38,-2.70,4.33,8.63
15657,5.19,3.06,4.25,-2.10,3.91,8.66
15667,2.56,2.00,7.50,-2.71,3.77,8.80
15677,-0.19,-1.81,14.94,-1.78,3.39,8.72
15687,-4.75,-0.75,20.75,-2.51,3.32,8.94
15697,-3.00,-0.19,21.00,-2.00,3.28,9.26
15707,4.12,0.81,21.62,-3.64,3.98,8.97
15717,1.12,4.25,16.50,-4.17,4.09,8.80
15727,1.75,0.69,8.44,-2.92,3.91,8.44
15737,2.81,-2.00,1.06,-2.66,3.93,8.55
15747,6.12,-2.38,-0.81,-3.03,4.18,8.94
15757,2.88,-4.19,-0.81,-2.00,3.28,8.68
15767,2.38,-2.75,-1.25,-2.19,3.52,8.80
15777,2.44,1.00,-1.19,-2.76,3.41,8.79
15787,1.50,1.38,0.00,-2.29,3.63,8.76
15797,2.31,-0.38,1.38,-2.33,3.63,8.46
15807,2.94,0.94,1.00,-2.25,3.67,8.81
15817,2.75,1.31,0.31,-2.16,3.41,8.62
15827,4.00,1.81,-0.12,-2.37,3.87,8.67
15837,4.25,1.25,0.00,-2.24,3.72,8.59
15847,4.12,0.81,-0.25,-2.12,3.45,8.32
15857,2.44,1.50,-0.69,-2.75,3.45,8.67
15867,4.75,0.94,0.38,-2.36,4.00,8.31
15877,3.44,1.00,0.44,-2.45,3.53,8.72
15887,5.00,1.00,0.44,-2.36,4.02,8.74
15897,3.81,-0.25,1.25,-1.99,3.51,8.31
15907,2.75,0.94,1.69,-2.36,3.31,8.78
15917,6.06,-0.44,5.81,-2.71,4.15,8.22
15927,0.38,-0.69,6.12,-2.32,3.30,8.73
15937,2.88,-1.62,4.56,-1.66,3.46,8.41
15948,4.69,-0.06,3.25,-2.11,4.30,8.27
15957,4.44,0.25,2.81,-2.48,4.59,8.36
15967,7.19,-0.88,2.19,-2.31,3.76,8.47
15978,2.06,-0.38,0.62,-2.13,2.94,8.73
15987,8.19,0.88,1.00,-2.60,3.82,8.58
15998,5.31,1.62,1.94,-2.67,3.71,8.49
16008,7.94,2.25,0.62,-2.68,4.50,8.46
16017,3.44,1.06,-1.56,-1.72,3.31,8.61
16028,7.81,2.56,-3.19,-2.02,3.90,8.47
16038,4.56,1.94,-3.12,-1.92,3.25,8.59
16048,8.88,3.88,-2.50,-2.39,4.32,8.52
16057,4.81,4.31,-1.12,-2.23,3.46,8.55
16067,5.88,5.69,-0.50,-1.91,4.13,8.58
16078,6.69,5.94,-1.62,-1.76,3.69,8.45
16088,6.25,7.75,-1.00,-2.14,3.73,8.73
16098,7.38,8.06,1.00,-2.40,3.84,8.39
16107,8.81,10.25,0.31,-2.47,4.00,8.56
16117,9.44,10.06,-2.31,-2.05,3.70,8.46
16128,11.31,11.56,-4.00,-2.47,3.96,8.62
16138,11.88,12.38,-4.25,-2.30,3.65,8.37
16148,13.44,14.12,-4.12,-2.71,3.88,8.40
16157,15.12,15.38,-3.75,-2.66,3.93,8.40
16167,16.56,16.88,-3.88,-2.56,3.96,8.45
16178,18.12,18.00,-3.69,-2.53,3.67,8.24
16188,20.25,21.12,-4.25,-2.78,3.96,8.33
16198,21.25,22.50,-4.25,-2.72,3.63,8.50
16207,24.56,24.62,-4.12,-2.13,4.04,8.18
16217,25.94,28.44,-4.62,-2.48,3.96,8.36
16228,26.69,31.69,-5.50,-2.39,3.34,7.45
16238,32.56,37.44,-8.19,-3.36,4.60,9.03
16248,36.69,40.56,-8.81,-1.73,4.50,8.05
16257,36.56,45.44,-11.19,-2.23,4.55,8.70
16268,38.81,52.44,-13.00,-1.89,3.98,8.22
16278,38.75,60.69,-16.81,-2.23,3.98,8.60
16288,47.69,65.06,-19.38,-2.13,4.73,8.27
16298,49.62,71.56,-22.88,-2.80,4.85,8.16
16308,52.88,77.88,-24.69,-2.52,4.63,7.90
16317,56.38,83.94,-27.69,-2.65,5.02,7.76
16328,55.25,94.06,-33.31,-3.01,4.69,7.91
16338,60.12,105.81,-37.81,-4.03,4.80,7.52
16348,67.38,113.25,-44.38,-4.00,6.00,7.26
16358,56.44,121.56,-51.19,-3.43,5.36,7.36
16367,47.38,134.81,-60.50,-3.88,4.66,7.36
16378,48.25,149.44,-67.69,-3.85,4.96,7.15
16388,46.81,166.75,-76.44,-4.32,5.21,7.03
16398,39.75,184.19,-84.38,-5.03,6.67,6.54
16408,13.69,197.81,-89.75,-4.40,5.37,7.29
16417,11.69,210.12,-95.88,-4.86,5.51,7.89
16428,12.88,222.12,-98.69,-5.31,5.71,8.27
16438,9.50,235.75,-100.06,-5.48,5.65,9.23
16449,27.75,248.19,-104.38,-6.95,4.61,11.55
16458,71.69,254.00,-108.81,-6.21,5.57,9.80
16467,95.25,264.88,-120.94,-6.35,6.01,10.35
16478,105.00,278.38,-132.50,-7.12,6.05,8.54
16488,106.25,290.88,-138.06,-6.78,5.77,9.45
16498,122.12,293.12,-146.81,-6.93,4.32,9.41
16508,162.50,289.25,-158.19,-7.99,4.68,10.72
16518,195.31,281.75,-166.69,-8.36,4.30,8.74
16528,230.56,307.06,-184.81,-8.67,5.36,5.31
16538,210.06,328.19,-199.12,-13.35,13.71,17.35
16548,72.38,169.56,-154.44,-32.57,20.14,34.69
16558,50.19,-96.44,-52.00,-9.33,13.84,20.35
16568,-3.19,-275.94,-2.88,2.99,6.97,13.70
16578,-29.75,-264.12,-2.50,4.61,7.89,6.72
16588,-79.06,-202.12,-11.12,1.03,-1.43,5.27
16599,-43.56,-199.75,1.75,1.24,0.73,4.62
16608,-5.94,-215.94,30.31,1.89,3.62,3.94
16618,-6.38,-217.31,53.19,2.88,5.80,4.48
16628,-17.81,-206.00,69.38,1.66,7.77,5.75
16638,-44.69,-203.06,82.44,0.63,7.48,7.59
16648,-74.00,-208.12,94.50,-1.87,5.57,8.89
16658,-84.12,-220.62,108.94,-1.06,0.35,6.00
16668,-72.81,-228.00,116.25,-0.84,-0.69,5.29
16679,-53.88,-230.31,115.69,-1.46,-0.59,5.50
16688,-39.81,-228.56,114.19,-4.05,3.26,6.85
16699,-41.12,-230.38,112.62,-4.49,4.17,7.21
16708,-48.81,-232.56,116.44,-3.73,4.19,7.03
16718,-57.62,-224.12,121.06,-4.19,4.02,7.89
16728,-64.62,-217.25,122.81,-7.30,3.79,11.29
16739,-66.88,-215.88,121.62,-8.90,3.79,11.39
16749,-65.44,-223.25,116.62,-9.64,3.60,10.87
16758,-61.69,-232.19,106.19,-10.44,5.45,11.13
16768,-60.81,-239.06,96.38,-10.68,7.23,11.49
16779,-67.44,-245.62,93.00,-10.17,7.74,11.35
16789,-72.69,-246.62,94.38,-9.90,8.73,11.46
16799,-78.50,-247.00,100.44,-10.34,10.77,11.97
16808,-87.38,-247.50,110.69,-10.05,10.43,11.61
16818,-92.50,-244.56,122.50,-10.00,10.43,11.35
16829,-96.81,-239.69,133.00,-9.56,9.29,10.72
16839,-99.25,-230.62,138.88,-10.25,8.75,11.02
16849,-95.06,-223.62,142.62,-2.41,-0.01,-0.01
16858,-91.19,-215.00,143.88,-10.54,7.99,9.96
16868,-85.75,-201.12,141.69,-9.69,6.45,7.22
16879,-77.94,-179.75,135.69,-10.07,5.63,6.36
16889,-69.38,-155.00,126.31,-10.67,5.06,5.35
16899,-63.19,-127.44,111.62,-13.10,3.03,4.00
16908,-50.25,-103.00,93.81,-14.50,2.85,3.17
16918,-38.12,-87.25,75.31,-14.69,2.01,1.76
16929,-26.69,-70.50,53.56,-15.00,0.71,0.37
16939,-8.00,-53.31,30.00,-14.98,0.29,-1.13
16949,8.38,-35.56,9.12,-14.57,1.08,-1.63
16958,15.19,-13.88,-5.44,-13.79,1.72,-1.77
16968,17.19,10.00,-15.62,-12.98,3.71,-0.40
16979,15.19,30.44,-23.25,-11.69,3.75,-0.28
16989,15.81,50.31,-30.31,-10.75,3.93,0.28
16999,21.50,67.25,-33.88,-10.13,5.36,1.76
17008,8.56,86.50,-33.19,-9.32,4.32,6.25
17018,4.25,99.38,-29.56,-6.61,4.25,5.21
17029,19.19,103.44,-22.19,-3.82,7.35,5.08
17039,-7.06,109.31,-18.69,8.06,0.94,17.04
17049,-14.62,80.56,-15.31,12.38,7.96,22.67
17058,-27.31,59.25,-24.31,16.60,4.97,22.67
17068,-24.75,86.38,-35.56,16.20,1.47,2.38
17079,-11.56,166.19,-36.56,-5.35,2.03,7.32
17089,2.81,183.88,-14.00,-14.21,4.34,19.02
17100,-7.38,138.56,6.69,-12.09,-1.57,20.19
17108,7.06,102.00,-10.88,-7.22,-7.94,12.69
17118,40.56,85.25,-34.81,-5.06,-1.40,13.23
17129,58.88,77.00,-36.75,-4.81,4.28,13.13
17139,61.62,67.00,-20.00,-2.18,6.54,11.20
17149,52.62,71.69,-9.75,-1.00,5.53,8.73
17158,43.19,77.50,-11.88,-2.75,3.56,9.78
17168,46.38,65.69,-18.06,-3.87,2.86,10.27
17179,44.94,55.62,-20.31,-2.85,4.29,9.19
17189,37.69,55.31,-17.38,-4.21,5.57,10.30
17200,29.19,44.25,-9.75,-5.15,7.42,10.88
17209,9.69,24.62,-3.44,-3.56,6.58,10.28
17218,2.88,13.50,-4.06,-2.70,3.08,9.63
17229,13.44,8.94,-6.38,-3.35,4.13,10.17
17238,15.31,4.25,-5.19,-3.45,4.42,10.29
17249,12.12,0.94,-2.75,-2.72,4.10,9.64
17258,11.12,1.19,1.62,-2.86,4.20,9.62
17268,5.19,4.62,3.38,-3.90,3.20,9.75
17279,6.81,0.06,7.06,-3.33,3.86,9.67
17290,3.75,-1.38,8.75,-2.48,3.22,8.79
17299,6.75,2.69,6.62,-3.32,3.54,8.89
17308,7.69,0.50,7.38,-2.64,4.16,8.61
17318,1.50,-2.25,14.69,-2.14,3.16,8.37
17329,4.00,-1.38,19.94,-2.71,4.46,8.67
17339,0.25,-0.25,20.06,-3.10,2.93,8.39
17350,7.69,-0.94,16.94,-3.07,3.76,8.76
17358,4.38,-2.62,14.25,-2.57,3.50,8.63
17368,5.19,-4.50,11.19,-1.86,3.78,8.74
17379,4.06,-3.06,10.19,-2.30,3.83,8.38
17389,4.06,-3.56,7.62,-2.28,3.48,8.04
17400,5.06,-4.25,3.69,-2.10,3.81,8.84
17408,7.88,-3.19,2.44,-1.80,4.33,8.17
17418,3.75,-2.44,4.00,-2.37,4.14,9.04
17429,3.19,-1.69,4.06,-2.04,3.21,8.93
17440,8.00,0.31,2.62,-2.31,3.93,8.64
17449,5.06,0.75,2.06,-2.73,4.07,8.88
17458,3.00,0.88,2.00,-2.27,3.63,8.55
17468,4.62,2.50,1.19,-2.71,3.95,8.39
17480,2.94,2.88,3.19,-2.89,3.72,8.52
17490,3.69,2.56,2.88,-2.91,3.67,8.35
17500,4.38,1.56,0.88,-2.36,3.71,8.31
17508,5.19,2.12,-0.25,-2.85,4.01,8.49
17519,4.25,1.56,-0.19,-2.64,3.63,8.54
17530,4.75,1.62,-0.38,-2.35,3.74,8.49
17539,5.19,2.25,-0.44,-2.75,3.71,8.57
17549,3.94,1.75,-0.12,-2.17,3.88,8.49
17558,3.38,2.19,-0.94,-2.17,3.83,8.40
17568,2.25,1.94,-0.94,-1.86,3.48,8.38
17580,3.31,1.62,-1.44,-2.14,2.98,8.91
17589,6.38,2.00,-1.69,-1.88,4.08,8.35
17599,2.69,2.12,-1.25,-1.81,3.34,8.69
17608,4.44,3.12,-1.06,-2.04,3.79,8.57
17618,5.38,3.38,-1.31,-2.27,3.71,8.49
17630,6.38,3.50,-0.94,-2.16,3.95,8.53
17639,2.31,3.00,-1.50,-2.16,3.36,8.53
17649,4.81,3.75,-1.94,-2.17,3.74,8.78
17658,5.31,5.19,-2.50,-2.14,3.84,8.22
17668,4.00,5.25,-2.12,-2.72,3.75,8.55
17680,5.12,4.50,-2.56,-2.11,3.53,8.52
17689,7.81,5.62,-3.31,-2.51,4.03,8.24
17700,5.62,5.44,-2.31,-2.21,3.97,8.66
17708,7.50,7.19,-2.44,-2.82,3.45,8.29
17719,11.69,7.69,-2.75,-2.78,4.46,8.36
17730,7.75,7.50,-3.62,-2.31,3.64,8.41
17740,9.44,9.50,-4.12,-2.33,3.67,8.57
17749,11.31,10.75,-4.19,-2.52,3.74,8.31
17758,13.44,11.81,-4.38,-2.79,4.25,8.25
17768,11.81,11.44,-4.50,-2.73,3.86,8.42
17780,11.44,11.69,-4.75,-2.00,3.71,8.53
17790,12.56,13.50,-5.00,-2.28,3.86,8.46
17800,14.12,14.44,-5.31,-2.36,3.86,8.54
17808,15.81,15.69,-5.12,-2.32,3.81,8.67
17818,16.88,16.56,-4.44,-2.37,3.62,8.29
17830,19.56,19.38,-4.19,-2.55,3.94,8.52
17840,21.19,21.38,-3.50,-2.26,3.72,8.35
17850,24.56,24.50,-4.00,-2.68,3.91,8.35
17858,26.25,27.12,-4.62,-2.83,3.75,8.42
17868,28.19,30.56,-5.06,-2.84,4.01,8.09
17880,29.31,35.06,-6.12,-2.75,4.05,8.24
17889,30.00,39.69,-8.88,-3.01,3.24,7.20
17900,34.44,45.12,-11.50,-2.84,3.64,7.67
17908,40.00,48.69,-12.62,-3.92,4.29,8.17
17919,39.25,52.25,-12.56,-3.27,4.82,8.97
17930,42.56,56.44,-13.62,-2.42,5.11,6.48
17939,37.06,64.88,-17.62,-1.97,3.61,8.02
17949,48.69,68.62,-21.31,-1.81,5.32,7.96
17958,45.88,73.31,-23.94,-2.33,4.55,8.10
17968,52.31,79.62,-26.38,-3.77,5.11,8.04
17980,53.44,82.38,-28.25,-2.54,5.07,7.59
17989,56.88,90.38,-35.31,-3.89,4.59,7.65
17999,61.19,97.19,-38.69,-3.91,5.06,7.25
18008,51.62,104.31,-41.75,-4.15,5.76,7.40
18018,42.25,113.12,-47.06,-3.70,4.65,7.30
18030,44.00,123.38,-52.94,-4.08,4.96,6.95
18039,43.50,135.94,-59.62,-3.95,4.97,7.07
18049,42.56,148.06,-67.25,-4.54,4.90,7.29
18058,31.12,159.19,-72.69,-5.14,6.43,6.08
18069,9.38,172.31,-77.69,-4.53,4.35,7.59
18080,5.75,185.94,-81.44,-4.75,5.63,7.32
18089,2.94,195.25,-82.56,-5.47,5.80,8.04
18099,1.25,201.44,-83.25,-4.93,4.91,8.90
18109,14.38,211.31,-86.94,-5.51,4.95,9.56
18119,44.44,221.38,-91.44,-5.93,3.68,11.41
18130,87.62,230.25,-96.81,-6.83,6.22,8.83
18139,99.62,240.44,-106.69,-7.13,5.68,10.48
18150,114.00,247.94,-112.69,-7.53,5.49,9.62
18158,127.56,252.38,-121.50,-7.69,6.11,-0.01
18168,143.62,254.19,-132.44,-8.45,4.65,9.98
18180,179.62,243.31,-140.06,-7.65,6.22,10.22
18189,197.12,249.44,-154.25,-6.82,5.63,8.77
18200,226.06,287.56,-188.00,-11.82,10.20,11.42
18208,120.75,198.75,-175.69,-22.73,16.67,33.88
18218,47.06,-18.44,-94.25,-28.62,13.07,33.76
18230,18.06,-195.44,-31.62,1.45,6.94,13.49
18240,-10.88,-214.00,-27.69,3.83,5.71,7.59
18250,-52.12,-172.62,-39.50,2.75,1.47,4.36
18258,-29.44,-161.94,-37.31,2.76,-2.05,4.30
18268,7.12,-169.19,-16.31,1.79,4.11,5.30
18280,5.50,-173.94,9.31,2.41,6.51,5.74
18289,-15.50,-173.88,34.19,2.15,7.85,6.11
18299,-40.69,-174.62,53.00,1.39,6.52,6.41
18308,-59.44,-175.75,73.31,0.13,5.09,6.75
18318,-63.62,-181.56,94.94,-0.41,3.22,6.64
18330,-54.94,-191.75,114.19,-1.13,2.29,6.19
18339,-49.88,-196.81,125.12,-1.68,2.42,6.09
18350,-51.75,-197.12,127.62,-2.53,2.11,6.19
18358,-53.31,-195.88,125.25,-3.18,2.31,6.42
18369,-54.19,-198.62,124.06,-4.97,3.04,6.90
18380,-57.12,-201.88,122.69,-4.88,2.19,7.39
18388,-57.12,-201.88,122.69,-5.54,2.79,8.73
18399,-57.31,-198.75,120.12,-6.51,3.47,9.53
18408,-72.25,-191.12,105.44,-7.93,2.50,9.96
18418,-70.44,-189.56,93.75,-9.01,2.94,10.17
18430,-64.38,-194.12,81.62,-10.10,3.99,10.74
18438,-64.38,-194.12,81.62,-9.79,7.65,10.34
18448,-60.69,-202.69,73.50,-9.35,8.63,10.10
18458,-69.44,-205.56,74.88,-9.81,10.22,10.74
18468,-76.19,-208.56,87.31,-10.22,12.88,11.00
18481,-88.75,-211.31,104.50,-9.60,12.25,9.85
18488,-88.75,-211.31,104.50,-8.97,10.76,8.91
18498,-99.44,-206.81,120.44,-9.07,10.28,8.98
18509,-110.12,-188.19,136.25,-9.96,8.14,9.60
18519,-107.19,-185.00,135.94,-10.13,7.76,9.84
18530,-102.62,-182.44,132.25,-10.56,7.84,9.97
18538,-102.62,-182.44,132.25,-10.47,6.34,8.73
18548,-98.56,-179.38,127.06,-10.60,6.05,7.26
18558,-80.56,-160.12,109.75,-10.17,5.40,5.73
18568,-67.31,-146.69,99.75,-12.55,4.55,7.24
18581,-51.75,-13.75,-0.06,-10.77,4.11,3.00
18588,-51.75,-141.75,92.69,-10.37,2.81,1.04
18598,-42.69,-121.75,78.19,-12.24,2.02,1.24
18609,-8.19,-79.94,47.00,-13.42,2.41,1.26
18618,4.44,-66.62,38.25,-12.35,2.99,-0.63
18631,11.12,-45.38,28.56,-12.19,2.98,-1.37
18638,11.12,-45.38,28.56,-12.07,3.55,-1.41
18648,18.94,-24.75,21.94,-10.72,4.87,-1.74
18658,17.31,29.31,18.12,-10.26,5.24,-1.99
18669,17.44,58.81,17.69,-9.88,6.34,-1.74
18681,13.00,82.62,25.62,-9.18,8.28,-0.64
18688,13.00,82.62,25.62,-5.99,1.39,10.23
18698,-8.69,98.88,34.62,5.68,2.19,12.50
18709,7.38,81.19,25.00,8.90,10.11,14.04
18719,-31.88,124.25,3.06,7.83,-2.02,0.51
18731,-28.25,173.94,-1.50,-1.13,-2.57,3.35
18738,-28.25,173.94,-1.50,-5.80,0.83,10.09
18748,-21.81,185.88,-0.12,-9.09,0.33,16.29
18758,-5.44,123.31,-0.06,-9.01,-2.17,13.77
18769,5.44,93.00,-6.56,-5.92,-6.06,12.29
18781,27.88,82.88,-27.12,-6.37,-4.46,13.56
18788,27.88,82.88,-27.12,-5.39,1.19,12.27
18797,44.31,69.69,-32.25,-3.47,4.64,10.27
18809,44.38,64.88,-15.06,-2.04,6.15,9.16
18819,33.81,69.44,-10.75,-2.81,4.63,8.99
18831,33.50,63.50,-15.38,-3.33,3.47,9.17
18837,33.50,63.50,-15.38,-2.95,2.98,9.17
18847,33.69,55.81,-20.06,-3.03,2.88,9.23
18858,32.19,46.88,-15.69,-5.74,5.61,11.94
18869,24.94,30.50,-3.44,-6.23,6.39,11.70
18880,11.00,11.00,4.25,-3.11,6.04,10.14
18886,11.00,11.00,4.25,-3.11,6.04,10.14
18896,4.69,6.88,2.00,-1.61,3.76,9.62
18908,15.25,4.62,-4.81,-3.67,3.06,10.48
18919,23.06,-2.94,-0.81,-3.51,3.52,9.79
18930,15.94,-4.06,2.81,-2.70,4.32,10.15
18936,15.94,-4.06,2.81,-2.70,4.32,10.15
18946,6.81,-1.75,6.75,-3.15,3.85,9.66
18958,2.00,-0.56,11.06,-3.09,3.89,9.38
18969,-1.50,-7.56,24.94,-1.86,3.02,8.68
18980,-1.50,-7.56,24.94,-3.32,3.86,8.56
18986,-1.50,-7.56,24.94,-0.76,-0.01,-0.01
18996,4.81,0.44,14.69,-3.39,3.56,8.35
19009,9.81,-1.56,12.00,-2.87,4.05,8.72
19019,13.38,-3.44,13.81,-2.20,4.31,8.18
19029,7.25,-6.00,16.06,-2.62,3.26,9.06
19036,7.25,-6.00,16.06,-2.62,3.26,9.06
19046,6.88,-4.38,17.38,-2.79,3.84,8.41
19058,12.31,-3.38,13.31,-2.38,4.02,8.24
19069,4.81,-3.56,11.25,-1.61,3.61,8.26
19079,7.19,-4.06,6.25,-2.46,3.62,8.64
19086,7.19,-4.06,-0.06,-2.46,3.62,8.64
19096,10.25,-2.00,1.50,-2.24,4.27,8.28
19108,8.38,0.19,6.50,-2.28,3.56,8.67
19119,5.88,1.06,8.38,-2.19,3.50,8.58
19129,7.38,1.06,3.38,-2.04,3.57,8.93
19136,7.38,1.06,3.38,-2.04,3.57,8.93
19146,8.25,1.25,1.81,-2.32,4.15,8.52
19158,6.69,3.38,1.69,-2.14,3.55,8.47
19169,7.56,4.19,-0.06,-2.26,3.89,8.81
19179,7.56,3.56,-1.12,-2.31,3.92,8.67
19186,7.56,3.56,-1.12,-2.31,3.92,8.67
19196,7.38,3.88,-1.62,-2.11,3.84,8.42
19207,6.75,4.12,-1.50,-2.29,3.66,8.45
19219,7.25,4.62,-1.25,-2.25,3.74,8.48
19229,7.12,5.25,-1.31,-2.57,3.95,8.46
19237,7.12,5.25,-1.31,-2.57,3.95,8.46
19246,7.38,5.12,-1.19,-2.26,3.91,8.28
19257,7.62,4.38,-1.50,-2.52,3.73,8.54
19269,8.12,3.69,-1.94,-2.44,3.79,8.56
19279,6.06,3.25,-1.75,-2.58,4.09,8.37
19286,6.06,3.25,-1.75,-2.58,4.09,8.37
19296,6.00,3.44,-1.94,-2.39,4.05,8.24
19307,5.50,2.81,-1.62,-2.66,4.07,8.50
19319,5.44,2.94,-2.06,-2.30,3.89,8.40
19329,6.31,2.94,-1.69,-2.11,3.46,8.37
19336,6.31,2.94,-1.69,-2.11,3.46,8.37
19346,8.50,3.94,-2.44,-2.65,4.55,8.41
19358,7.56,4.06,-2.44,-2.35,3.81,8.39
19369,7.38,6.06,-3.12,-2.11,3.88,8.59
19379,8.62,5.88,-3.25,-2.24,3.75,8.24
19386,8.62,5.88,-3.25,-2.24,3.75,8.24
19396,11.00,7.19,-3.62,-2.63,3.86,8.41
19409,11.94,8.94,-3.19,-2.70,3.85,8.40
19419,13.69,11.00,-3.69,-2.63,3.83,8.42
19430,13.31,12.44,-4.06,-2.21,3.99,8.27
19436,13.31,12.44,-4.06,-2.21,3.99,8.27
19446,15.06,13.25,-3.50,-2.90,4.04,8.26
19457,17.31,15.25,-3.94,-2.69,4.16,8.12
19469,20.38,17.81,-3.69,-2.39,3.98,8.37
19479,20.81,19.62,-3.31,-2.59,4.00,8.13
19487,20.81,19.62,-3.31,-2.59,4.00,8.13
19497,23.25,23.06,-4.06,-2.76,4.22,8.29
19507,24.12,25.69,-4.06,-2.63,3.99,8.15
19519,28.25,30.56,-6.44,-2.78,4.29,7.91
19529,29.75,34.19,-7.25,-2.77,4.17,8.16
19537,29.75,34.19,-7.25,-2.77,4.17,8.16
19547,30.19,37.50,-8.56,-3.28,4.19,7.88
19560,33.25,41.44,-11.25,-2.78,4.10,8.00
19570,32.81,44.44,-11.88,-2.95,4.52,7.72
19580,36.00,49.31,-11.56,-3.22,4.04,7.11
19587,36.00,49.31,-11.56,-3.22,4.04,7.11
19597,34.75,53.94,-14.25,-3.14,4.96,7.87
19610,45.19,57.56,-15.12,-2.79,4.32,7.92
19620,44.50,63.19,-17.12,-2.43,4.67,7.43
19630,49.31,68.94,-19.50,-2.62,4.93,8.32
19638,49.31,68.94,-19.50,-2.62,4.93,8.32
19648,54.50,73.38,-24.56,-2.93,6.36,7.38
19660,52.94,81.25,-33.31,-2.85,4.94,7.57
19670,49.94,89.62,-37.81,-3.66,5.45,7.61
19679,51.75,95.88,-40.25,-3.92,5.39,7.31
19687,51.75,95.88,-40.25,-3.92,5.39,7.31
19697,46.81,106.56,-43.50,-3.94,5.16,7.43
19710,46.75,131.56,-55.75,-4.14,6.06,6.68
19719,45.56,147.25,-64.94,-4.89,6.63,6.37
19730,25.38,164.94,-72.00,-4.90,5.70,6.71
19737,25.38,164.94,-72.00,-4.90,5.70,6.71
19747,13.44,182.69,-78.62,-5.11,5.75,7.14
19759,5.88,218.12,-88.75,-4.98,4.63,8.96
19769,16.94,231.44,-92.81,-6.41,4.75,11.50
19780,41.75,235.94,-94.88,-6.89,5.36,10.19
19787,41.75,235.94,-94.88,-6.89,5.36,10.19
19797,70.75,241.94,-15.94,-6.28,4.99,9.84
19810,124.38,263.12,-107.31,-6.84,6.74,8.84
19819,141.38,272.19,-112.62,-6.83,5.64,8.42
19829,144.44,282.00,-124.56,-7.39,5.60,9.65
19838,144.44,282.00,-124.56,-7.39,5.60,9.65
19848,162.38,287.88,-133.69,-8.25,3.68,10.02
19860,255.31,290.31,-172.88,-11.16,-2.76,5.29
19870,356.94,326.69,-198.94,-23.24,20.73,31.71
19880,235.25,215.88,-177.62,-29.20,14.35,36.10
19888,235.25,215.88,-177.62,-29.20,14.35,36.10
19898,71.00,4.81,-91.25,-12.59,15.66,23.02
19910,-8.12,-270.81,-15.56,2.65,2.96,5.17
19920,-53.75,-255.69,-16.88,2.86,-1.86,3.75
19930,-61.88,-222.81,-17.19,2.57,-0.94,2.44
19938,-61.88,-222.81,-17.19,2.57,-0.94,2.44
19948,-25.50,-211.00,-0.94,3.24,2.97,2.91
19960,-14.50,-195.31,56.50,0.88,6.36,6.36
19970,-29.94,-190.88,74.94,-2.44,9.44,7.99
19979,-55.19,-200.25,84.31,-2.25,4.53,7.59
19988,-55.19,-200.25,84.31,-2.01,1.90,5.91
19998,-90.06,-218.81,98.94,-2.17,-0.21,4.98
20010,-83.31,-228.69,116.25,-4.01,-0.12,5.49
20020,-68.19,-225.25,112.50,-5.14,1.44,6.90
20030,-63.12,-223.94,104.56,-6.37,2.32,7.98
20038,-63.12,-223.94,104.56,-6.47,2.82,7.52
20049,-65.94,-229.94,96.94,-4.86,3.23,6.00
20060,-58.50,-234.94,84.44,-4.94,4.05,6.94
20070,-52.62,-221.12,84.62,-6.09,7.12,7.97
20080,-57.38,-205.75,90.44,-7.72,6.32,9.33
20088,-57.38,-205.75,90.44,-8.60,6.84,9.13
20098,-74.81,-194.56,96.69,-8.71,7.55,8.55
20110,-74.19,-184.62,103.88,-8.60,7.59,8.83
20120,-77.31,-179.50,102.75,-10.83,10.29,11.71
20130,-80.88,-179.88,104.31,-11.24,11.73,12.11
20138,-80.88,-179.88,104.31,-11.12,11.69,11.80
20148,-90.19,-189.00,111.25,-10.51,10.06,10.31
20159,-119.19,-201.56,127.62,-10.75,9.05,10.37
20169,-125.31,-202.50,131.31,-10.49,8.26,9.95
20179,-124.62,-203.06,132.44,-10.29,7.96,9.69
20188,-124.62,-203.06,132.44,-10.44,7.96,9.73
20198,-119.69,-202.25,129.25,-10.55,7.57,9.45
20210,-107.00,-200.44,116.44,-10.30,7.26,8.63
20219,-107.00,-200.44,116.44,-10.26,5.77,7.29
20229,-81.56,-190.56,101.06,-10.94,5.15,7.04
20238,-81.56,-190.56,101.06,-10.94,5.15,7.04
20248,-64.25,-181.62,91.69,-11.20,4.36,6.14
20260,-34.19,-154.56,69.62,-12.13,2.40,2.31
20270,-21.44,-134.69,56.81,-12.52,1.77,0.87
20280,-9.56,-111.50,40.19,-13.09,1.54,0.11
20288,-9.56,-111.50,40.19,-13.09,1.54,0.11
20298,3.75,-89.88,22.94,-13.86,3.32,-0.69
20310,23.81,-53.56,2.69,-13.28,4.03,-1.76
20320,28.25,-33.25,-0.88,-12.31,4.15,-2.61
20330,27.56,-6.38,-2.56,-11.27,5.06,-2.31
20338,27.56,-6.38,-2.56,-11.06,5.44,-1.40
20348,25.31,24.19,-3.44,-10.53,6.09,-0.35
20360,25.38,70.62,-2.75,-9.18,4.90,3.50
20370,25.38,70.62,-2.75,-8.07,5.79,4.06
20380,8.75,94.94,-3.75,-5.21,8.11,5.06
20388,20.56,104.38,2.75,5.44,5.02,13.87
20398,13.50,104.06,12.50,16.80,9.77,26.49
20410,-10.06,38.44,2.25,22.72,1.70,10.10
20419,-23.44,44.94,-27.25,18.57,-6.20,-11.63
20429,-23.44,44.94,-27.25,-12.63,9.56,12.60
20438,-11.88,150.56,-39.62,-14.36,-4.15,17.55
20448,10.94,203.75,-9.94,-5.76,-9.26,14.48
20460,-38.94,143.62,-23.69,-5.00,-11.13,13.06
20469,-38.94,143.62,-23.69,-9.34,4.11,16.09
20480,12.44,135.94,-61.12,-6.45,10.29,13.56
20489,57.38,106.38,-52.75,-2.60,7.76,10.76
20499,60.25,74.44,-16.19,-2.49,3.08,10.03
20510,29.38,84.62,5.12,-5.35,1.96,11.17
20519,29.38,84.62,5.12,-4.54,2.33,11.05
20530,36.38,78.25,-12.44,-3.93,3.88,9.64
20538,47.50,56.44,-19.75,-3.82,6.50,10.40
20549,43.50,50.44,-18.69,-4.42,7.67,10.24
20560,12.88,32.75,-7.25,-2.07,5.29,8.63
20570,12.88,32.75,-7.25,-3.18,4.83,10.19
20580,-2.44,23.50,-8.31,-4.54,4.20,10.28
20589,2.12,23.50,-11.56,-3.63,3.30,9.93
20599,1.12,16.31,-11.94,-3.68,3.21,10.14
20611,16.88,-0.12,-4.31,-2.37,4.06,9.24
20619,16.88,-0.12,-4.31,-3.08,3.23,9.65
20630,8.38,0.38,-2.25,-3.55,3.25,9.61
20639,4.00,4.38,-0.19,-2.66,3.37,9.29
20649,6.12,1.25,4.44,-2.31,3.45,8.93
20661,6.19,-5.25,8.31,-2.25,3.42,8.74
20670,6.19,-5.25,8.31,-2.22,3.38,8.60
20680,6.12,-3.44,8.81,-1.84,3.69,8.71
20689,6.56,-2.56,13.25,-1.88,3.34,8.29
20699,4.38,-6.12,22.88,-2.27,4.40,8.79
20711,2.81,-0.81,26.00,-2.94,3.89,8.79
20720,2.81,-0.81,26.00,-2.70,3.82,8.33
20730,7.94,1.06,26.94,-2.87,4.09,8.55
20739,8.88,-1.31,20.00,-3.64,4.25,8.42
20749,9.25,-0.44,12.88,-2.36,3.88,8.25
20761,8.38,-2.19,0.44,-2.57,4.16,8.57
20769,8.38,-2.19,0.44,-2.61,4.40,8.14
20780,10.81,-1.75,-2.25,-2.08,3.66,8.71
20789,6.81,-1.25,-1.88,-1.64,3.01,8.69
20799,6.50,-3.12,-0.88,-2.16,3.18,8.83
20811,10.81,0.88,-1.50,-1.40,3.78,8.44
20820,10.81,0.88,-1.50,-2.22,3.22,8.83
20830,9.81,3.00,-0.38,-1.88,4.34,8.55
20838,8.50,7.12,2.56,-1.88,4.34,8.55
20849,7.94,6.81,4.31,-2.02,3.69,8.39
20861,10.31,7.44,-2.50,-3.07,4.04,8.49
20870,10.31,7.44,-2.50,-2.83,4.10,8.22
20880,12.38,8.12,-4.31,-2.57,3.56,8.47
20888,9.25,7.31,-3.44,-2.57,3.56,8.47
20900,10.50,8.38,-4.00,-2.68,3.96,8.48
20911,9.94,9.81,-3.56,-2.38,3.81,8.28
20919,9.94,9.81,-3.56,-2.38,3.81,8.28
20929,11.06,9.88,-4.25,-2.28,3.99,8.45
20937,10.00,9.44,-4.31,-2.42,3.78,8.58
20949,9.69,-0.06,-0.06,-2.43,4.00,8.51
20960,9.56,9.88,-3.31,-2.75,4.19,8.58
20969,8.81,9.38,-3.25,-2.75,4.19,8.58
20979,9.06,8.75,-3.12,-2.36,4.11,8.23
20989,7.75,7.62,-3.44,-2.85,3.98,8.26
21000,7.88,8.06,-3.62,-2.92,4.10,8.38
21011,6.62,7.62,-3.69,-2.72,4.06,8.24
21020,6.62,7.62,-3.69,-2.76,3.96,8.27
21030,6.25,6.31,-3.81,-2.93,4.36,8.23
21038,8.00,5.94,-3.75,-2.93,4.36,8.23
21050,8.56,5.06,-3.31,-2.86,4.24,8.22
21060,7.75,4.00,-2.56,-2.73,4.02,8.31
21069,7.75,4.00,-2.56,-2.73,4.02,8.31
21079,7.50,3.75,-2.19,-2.61,3.98,8.32
21088,7.69,3.31,-2.00,-2.60,3.91,8.37
21100,8.12,2.81,-1.56,-2.22,3.96,8.40
21111,8.62,3.19,-1.56,-2.60,4.08,8.14
21119,8.62,3.19,-1.56,-2.60,4.08,8.14
21129,9.31,3.94,-0.06,-2.31,4.05,8.33
21138,8.81,4.56,-2.19,-2.60,4.07,8.23
21150,9.88,6.00,-1.44,-2.48,3.83,8.27
21159,11.25,6.56,-1.50,-2.52,3.94,8.40
21169,12.50,8.31,-1.56,-2.52,3.94,8.40
21179,14.56,10.19,-1.12,-2.89,4.11,8.26
21188,16.31,11.69,-0.06,-2.80,4.05,8.21
21199,17.56,12.31,-0.88,-2.23,4.11,8.42
21210,18.31,14.06,-1.25,-2.61,4.02,8.17
21219,20.06,16.38,-1.88,-2.61,4.02,8.17
21229,21.75,18.81,-3.19,-2.67,4.25,8.18
21237,23.19,21.31,-4.06,-2.53,4.04,8.31
21249,25.38,24.44,-0.06,-2.55,4.39,7.24
21261,28.38,35.75,-11.50,-3.39,4.33,8.76
21269,28.38,35.75,-11.50,-2.56,4.30,8.15
21280,35.69,38.50,-12.75,-3.00,4.51,7.52
21288,33.62,41.00,-14.19,-3.00,4.51,7.52
21299,38.38,46.81,-15.62,-2.37,4.43,7.90
21311,42.88,56.88,-21.44,-3.30,4.85,7.54
21320,42.88,56.88,-21.44,-3.28,5.20,7.93
21330,45.62,60.50,-23.69,-2.53,5.10,7.68
21338,47.00,63.94,-26.12,-2.53,5.10,7.68
21349,45.56,70.06,-30.25,-3.73,5.13,7.55
21360,49.75,78.50,-35.06,-3.93,5.33,7.65
21369,56.81,89.19,-37.56,-3.93,5.33,7.65
21379,51.94,97.62,-40.75,-3.60,5.40,7.71
21388,55.56,107.88,-43.12,-3.60,5.40,7.71
21399,53.06,121.81,-47.12,-3.42,4.58,7.53
21411,54.38,152.38,-62.38,-4.11,6.43,6.84
21420,54.38,152.38,-62.38,-3.83,5.45,7.31
21430,50.25,167.19,-72.12,-3.83,5.45,7.31
21438,28.56,184.75,-79.75,-4.29,5.90,7.41
21450,25.25,198.88,-87.12,-4.60,5.66,9.22
21461,15.94,215.44,-91.50,-5.34,4.31,10.85
21469,5.94,237.75,-95.69,-5.34,4.31,10.85
21480,30.69,249.38,-97.94,-5.99,3.99,11.96
21489,82.06,253.69,-100.44,-6.38,6.41,9.18
21500,118.31,263.06,-110.31,-7.94,5.99,9.49
21511,153.94,274.12,-124.62,-7.39,6.22,9.09
21519,153.94,274.12,-124.62,-7.39,6.22,9.09
21530,168.62,271.00,-135.81,-8.78,3.82,9.70
21539,207.44,257.06,-146.44,-7.77,6.08,9.57
21550,232.88,250.31,-157.69,-7.80,2.95,7.08
21561,258.25,280.44,-171.25,-25.16,15.09,32.23
21569,216.19,242.25,-181.38,-25.16,15.09,32.23
21580,101.25,42.56,-128.69,-18.26,10.24,25.03
21588,68.50,-152.12,-67.56,-3.22,9.26,16.07
21600,38.25,-212.06,-49.44,2.84,5.50,6.42
21610,-12.50,-174.44,-47.06,1.28,2.06,5.46
21619,-23.00,-161.12,-36.69,1.28,2.06,5.46
21630,-2.06,-171.75,-10.81,2.35,4.96,5.24
21638,-0.50,-173.38,16.88,1.61,6.13,5.84
21649,-13.50,-166.12,40.19,0.68,6.61,6.36
21660,-34.25,-164.62,62.38,-2.56,4.45,7.87
21669,-52.31,-171.69,83.44,-2.56,4.45,7.87
21679,-67.31,-185.12,101.06,-3.20,3.49,7.85
21688,-80.44,-195.06,111.81,-4.27,1.27,8.23
21700,-79.56,-208.06,116.69,-5.64,-0.99,7.55
21710,-70.31,-224.38,116.56,-6.02,-0.48,7.13
21719,-62.75,-233.31,107.88,-6.02,-0.48,7.13
21729,-59.25,-236.38,93.94,-5.81,0.08,7.34
21738,-56.38,-239.56,79.00,-7.31,2.01,8.71
21750,-55.31,-245.38,69.56,-7.07,2.09,8.65
21760,-53.31,-244.50,67.56,-5.94,7.00,9.21
21769,-49.44,-237.12,71.50,-5.94,7.00,9.21
21779,-55.06,-226.56,78.75,-6.57,7.44,9.33
21786,-72.25,-215.06,84.12,-7.33,7.62,9.73
21799,-82.88,-209.38,90.31,-7.75,7.94,9.68
21810,-89.25,-205.44,98.88,-7.39,8.17,8.43
21819,-96.69,-200.69,106.88,-7.39,8.17,8.43
21829,-100.50,-192.25,113.69,-6.89,7.40,8.04
21836,-94.81,-178.62,120.25,-8.96,10.80,11.14
21849,-96.19,-169.88,127.06,-10.08,10.99,12.23
21860,-104.62,-170.50,136.12,-10.11,9.98,10.83
21869,-110.12,-174.56,142.81,-10.11,9.98,10.83
21879,-114.62,-173.94,142.69,-10.23,7.73,9.71
21886,-113.69,-169.69,137.56,-11.07,7.51,9.81
21899,-105.56,-167.31,130.56,-11.58,7.85,9.88
21910,-98.56,-167.50,123.62,-11.82,6.49,5.92
21919,-91.38,-165.88,116.50,-11.82,6.49,5.92
21929,-80.44,-157.88,107.75,-12.64,6.18,5.09
21936,-68.56,-147.56,98.69,-13.14,5.66,4.06
21949,-57.50,-134.38,88.62,-14.22,4.87,1.81
21960,-44.31,-116.81,77.25,-15.00,5.26,-1.72
21969,-34.88,-97.00,67.00,-15.00,5.26,-1.72
21979,-28.94,-71.44,56.44,-16.05,4.37,-4.90
21986,-16.31,-43.69,45.44,-16.62,4.89,-5.53
21999,1.00,-21.00,38.44,-16.33,5.07,-5.83
22010,17.38,0.81,31.69,-15.84,5.79,-6.01
22018,24.12,22.31,23.75,-2.31,-0.01,-0.01
22029,23.25,42.44,20.56,-11.88,7.83,-3.82
22036,13.56,67.50,18.69,-12.59,5.07,-0.06
22048,18.12,89.94,16.56,-0.72,-0.01,-0.01
22059,19.31,86.06,18.75,8.02,-0.51,19.00
22069,-11.94,24.81,11.50,16.07,3.16,37.57
22079,16.00,-31.75,-38.81,24.78,4.50,31.37
22086,19.44,1.62,-119.94,32.38,-11.73,-19.96
22098,34.25,151.75,-108.50,-7.59,0.85,15.89
22109,71.50,268.69,-41.81,-31.60,20.07,22.17
22119,-149.44,194.00,68.06,-8.71,-22.55,16.27
22129,-8.19,112.38,2.19,-5.26,-2.60,13.54
22136,111.50,67.50,-47.19,-6.33,8.59,13.08
22148,96.81,52.00,-42.81,-2.55,12.71,11.79
22159,59.19,57.31,-16.31,-0.57,7.63,8.81
22168,39.00,70.38,-0.88,-1.57,4.65,9.50
22178,28.94,80.06,-5.50,-4.11,3.91,9.93
22186,34.62,62.69,-11.38,-1.57,5.72,8.55
22198,47.12,40.19,-17.38,-1.02,6.62,7.18
22209,32.69,49.06,-19.94,-2.75,5.68,7.74
22218,24.06,51.31,-17.94,-4.05,6.04,9.51
22227,13.06,42.00,-16.06,-2.69,3.91,8.85
22236,2.69,29.19,-16.69,-0.89,3.08,8.09
22247,7.31,31.38,-20.62,-1.96,5.17,9.00
22257,0.25,36.69,-18.88,-4.40,3.15,10.72
22269,-7.12,21.44,-10.25,-3.31,2.27,10.67
22279,6.88,5.50,-3.00,-3.09,4.94,10.26
22287,0.69,4.38,-3.19,-2.38,4.11,9.83
22298,-5.00,6.62,-3.25,-2.19,3.33,9.33
22309,6.25,8.00,1.56,-2.84,3.84,9.58
22319,4.56,3.44,6.00,-2.34,3.44,8.86
22329,5.81,1.56,9.00,-1.61,3.68,8.76
22337,4.81,2.44,11.75,-3.49,3.06,8.52
22348,9.00,7.56,5.19,-3.41,4.60,8.78
22360,4.50,2.94,3.19,-2.64,3.68,8.44
22369,6.56,3.38,4.12,-3.43,4.09,8.77
22377,4.81,1.94,5.00,-3.18,4.10,8.36
22386,1.75,0.69,5.56,-3.51,3.67,8.66
22396,2.50,-1.50,6.62,-2.73,3.56,8.61
22406,3.50,-2.38,3.38,-2.73,4.01,8.44
22417,3.25,-1.31,2.81,-2.74,4.03,8.61
22427,1.69,-1.06,4.25,-2.27,3.83,8.78
22436,1.88,-2.19,6.00,-1.97,3.11,8.84
22446,0.44,-2.62,9.19,-1.98,3.23,8.75
22459,2.56,-0.75,11.94,-1.89,3.56,8.98
22468,2.75,-0.69,12.44,-1.40,4.25,8.49
22478,-0.62,-0.75,13.56,-2.10,3.17,8.72
22487,0.06,2.38,13.44,-2.57,3.61,8.59
22496,2.69,0.62,10.25,-2.42,3.76,8.63
22506,4.31,-1.00,7.19,-2.35,3.72,8.65
22518,4.50,-1.81,5.88,-2.69,3.66,8.51
22528,2.94,-1.50,6.81,-3.20,4.21,8.48
22536,-0.88,-2.38,7.69,-3.24,3.82,8.72
22546,3.69,-1.62,5.50,-2.34,3.62,8.33
22556,4.31,-1.69,3.88,-2.82,3.72,8.48
22568,5.94,-0.06,-0.06,-3.11,4.04,8.41
22578,3.62,-2.31,2.44,-2.26,3.28,8.43
22586,3.69,-1.88,0.12,-2.33,3.76,8.77
22596,5.25,-2.81,0.12,-1.64,3.42,8.64
22606,8.50,-1.06,-0.44,-2.48,4.54,8.94
22618,9.19,-1.56,2.19,-1.72,3.91,8.23
22627,0.81,-0.94,2.19,-1.96,3.43,8.69
22636,3.81,0.00,2.00,-1.89,3.91,8.59
22646,3.50,0.94,2.38,-2.50,4.05,8.73
22656,3.94,1.44,3.88,-2.44,3.77,8.58
22668,2.75,0.88,4.94,-2.66,3.62,8.67
22678,4.31,1.06,2.25,-2.09,-0.01,-0.01
22687,4.69,1.50,0.62,-2.28,3.59,8.53
22697,8.06,2.38,0.06,-2.54,4.44,8.30
22707,4.19,2.25,-0.25,-2.57,3.42,8.56
22718,6.12,3.38,-1.56,-2.69,3.66,8.56
22728,7.44,4.31,-2.25,-2.10,3.66,8.47
22737,9.12,4.00,-3.06,-2.19,3.92,8.31
22747,8.50,5.19,-3.12,-2.02,3.62,8.49
22757,8.19,5.25,-2.38,-2.33,3.97,8.42
22768,7.81,6.25,-0.62,-2.31,3.72,8.46
22777,8.81,6.75,-1.56,-2.07,3.76,8.55
22787,9.81,6.88,-3.50,-2.15,3.73,8.65
22797,8.81,7.06,-3.38,-2.20,3.74,8.46
22807,9.88,8.31,-0.06,-2.47,3.84,8.54
22818,10.56,8.88,-3.06,-2.59,3.84,8.40
22828,11.50,10.38,-3.31,-2.33,4.00,8.53
22837,11.19,10.88,-3.38,-2.45,3.74,8.34
22847,12.69,12.31,-3.50,-2.74,3.91,8.30
22857,13.69,13.00,-3.44,-2.68,4.07,8.42
22868,14.19,12.81,-3.50,-2.35,3.73,8.28
22876,15.56,14.62,-0.06,-2.68,4.03,8.31
22886,16.12,15.38,-4.19,-2.74,3.75,8.24
22896,17.56,17.50,-4.62,-2.98,3.73,8.45
22906,20.44,19.31,-4.06,-2.60,3.99,8.18
22916,22.38,22.75,-4.12,-2.58,3.91,8.42
22926,23.31,27.25,-5.56,-2.33,3.39,8.31
22936,28.31,32.38,-7.62,-2.97,4.15,8.54
22946,30.62,36.00,-8.19,-1.55,4.63,8.33
22956,31.56,42.19,-10.31,-2.50,4.65,7.77
22968,34.56,46.81,-11.75,-1.91,3.95,7.97
22977,36.69,54.31,-16.06,-2.46,4.21,8.83
22986,42.25,58.06,-17.62,-2.21,4.06,8.32
22997,44.62,64.69,-0.06,-3.19,4.97,8.30
23007,51.69,69.38,-21.00,-2.49,4.86,7.79
23018,50.19,76.88,-24.31,-2.04,3.83,8.43
23026,58.88,87.31,-30.44,-3.23,5.02,7.98
23036,62.12,95.44,-36.75,-3.31,4.80,-0.01
23047,64.69,106.44,-44.25,-3.56,4.30,7.35
23057,74.12,118.38,-0.06,-3.86,5.93,7.32
23068,57.38,129.62,-57.56,-3.50,4.37,7.65
23077,52.50,145.69,-62.81,-3.84,4.82,7.46
23086,56.06,160.25,-6.06,-3.95,4.76,7.23
23097,57.69,176.31,-78.50,-5.11,6.84,6.39
23107,36.88,191.62,-5.00,-4.18,5.28,7.86
23118,16.81,204.88,-90.56,-4.22,5.52,8.35
23127,12.19,214.19,-94.31,-4.89,6.17,8.30
23136,-2.75,226.56,-93.69,-5.10,4.30,10.79
23147,13.56,236.38,-94.12,-5.84,4.50,11.28
23157,55.56,242.25,-94.50,-5.79,3.60,11.65
23169,98.00,250.62,-100.12,-7.28,4.79,10.69
23178,122.19,254.88,-106.81,-7.80,6.26,9.61
23187,138.94,253.81,-111.38,-7.37,6.13,9.25
23197,154.44,255.81,-125.81,-8.29,4.42,10.23
23208,183.81,252.38,-137.00,-7.40,5.67,9.58
23219,203.38,246.88,-142.44,-7.91,3.19,8.80
23228,238.00,262.69,-156.62,-9.91,2.96,-0.01
23237,230.69,224.00,-169.94,-22.53,21.58,31.31
23246,81.56,37.56,-113.00,-17.38,10.29,25.44
23258,15.38,-135.75,-52.19,-4.10,7.85,17.06
23269,1.62,-193.31,-33.38,2.18,3.61,6.90
23278,-34.56,-176.56,-33.19,2.74,0.56,4.77
23287,-31.12,-166.31,-29.81,2.24,0.67,4.54
23298,-5.50,-168.62,-12.62,2.33,2.91,4.68
23308,-2.25,-170.31,9.62,2.34,6.60,5.21
23319,-23.94,-167.19,32.19,2.07,6.73,5.61
23327,-46.94,-162.75,50.56,1.21,6.28,6.00
23337,-64.19,-165.00,67.94,-0.50,3.81,6.31
23348,-70.62,-171.44,85.75,-1.43,2.85,7.00
23358,-67.12,-180.06,98.94,-2.93,2.94,7.59
23369,-66.88,-190.94,107.12,-3.61,2.43,7.07
23376,-65.88,-201.19,107.31,-3.91,1.16,5.81
23386,-59.38,-206.44,99.56,-4.42,2.10,5.98
23397,-56.81,-208.06,91.06,-5.51,2.59,6.95
23407,-53.31,-213.12,88.00,-5.82,4.44,7.78
23419,-53.75,-215.38,89.38,-5.93,5.32,8.01
23426,-59.94,-211.88,91.31,-5.95,5.74,8.36
23436,-66.44,-204.19,92.12,-6.69,6.37,8.69
23447,-74.75,-197.38,93.31,-7.95,6.49,9.43
23457,-77.56,-192.88,93.88,-8.48,7.30,9.58
23466,-80.50,-192.94,93.50,-8.68,7.83,9.91
23477,-84.25,-195.25,93.94,-8.80,8.60,10.72
23487,-88.69,-195.19,96.38,-8.68,8.61,10.91
23497,-90.62,-194.88,101.38,-8.69,9.10,11.20
23507,-94.38,-193.31,106.06,-9.19,9.41,11.42
23519,-100.12,-193.25,108.56,-9.18,8.24,10.99
23526,-4.75,-0.06,-0.06,-8.99,7.80,10.52
23536,-96.75,-192.75,104.19,-1.09,-0.01,-0.01
23548,-91.75,-187.94,98.19,-8.51,6.73,9.43
23557,-85.25,-181.19,90.25,-8.94,6.94,9.82
23568,-75.50,-176.00,81.62,-2.17,-0.01,-0.01
23577,-67.06,-175.06,74.12,-2.20,-0.01,-0.01
23587,-54.12,-172.25,66.62,-10.62,5.21,9.00
23598,-37.38,-169.44,59.25,-10.58,4.83,7.93
23609,-25.94,-164.25,50.88,-10.22,4.13,6.70
23621,-16.25,-153.81,39.06,-10.50,2.74,4.67
23628,-5.19,-141.69,24.12,-10.56,1.99,3.52
23637,8.50,-127.44,7.75,-11.01,1.77,2.95
23648,25.12,-115.19,-5.31,-11.55,2.08,2.98
23658,38.88,-107.00,-14.38,-10.82,2.88,1.02
23671,47.88,-97.75,-21.19,-9.89,3.09,0.00
23677,55.75,-81.94,-26.19,-9.88,4.38,0.18
23687,54.25,-64.94,-26.38,-8.98,5.60,-0.62
23698,44.50,-46.94,-21.75,-7.96,4.90,-1.19
23709,42.88,-23.81,-17.31,-7.80,5.71,-0.93
23721,42.50,-0.19,-10.25,-7.90,6.81,-0.45
23727,38.38,19.31,1.94,-6.97,8.04,0.10
23737,31.69,40.25,16.69,-6.73,8.21,0.25
23748,21.94,65.19,31.19,-6.67,7.44,0.45
23758,16.56,90.56,44.69,-7.71,7.08,1.67
23770,10.44,112.25,57.00,-5.98,7.69,2.70
23776,3.81,127.81,68.38,-5.55,8.42,3.78
23786,-19.19,135.19,-0.06,-4.26,6.48,7.34
23797,-30.69,87.00,96.94,17.33,11.57,31.50
23807,-33.75,59.06,66.06,24.22,7.15,22.39
23819,-65.62,86.50,6.06,28.17,-8.49,-6.54
23826,-58.56,210.38,-13.75,-9.09,-4.41,9.30
23836,-20.88,322.88,-4.50,-23.54,-2.15,15.92
23848,-151.44,285.31,-0.69,-28.84,-20.89,22.92
23858,-38.50,185.38,-50.38,-16.00,-12.64,21.65
23869,50.56,108.62,-64.38,-5.42,5.38,12.08
23877,72.81,91.19,-47.12,-4.42,12.68,13.61
23887,41.75,89.56,-20.19,-6.19,13.34,14.68
23898,6.62,74.44,-2.38,-6.36,2.16,13.03
23908,10.81,61.56,-4.81,-7.69,2.85,13.53
23920,28.00,30.81,-4.75,-3.84,6.29,11.32
23927,18.81,19.69,-5.75,-0.77,6.25,8.73
23937,6.44,32.31,-8.88,-4.45,4.16,9.18
23948,3.81,28.69,-5.00,-3.90,3.64,9.14
23958,8.25,15.38,-0.56,-2.42,2.95,9.07
23971,17.19,10.69,-1.19,-3.35,4.28,9.78
23977,15.69,7.12,-2.56,-4.53,3.50,10.41
23986,19.94,-5.94,3.31,-3.36,3.82,8.92
23998,20.31,-10.44,3.00,-2.15,4.38,8.75
24008,9.94,-3.31,1.50,-1.81,3.98,8.75
24020,5.19,1.88,8.25,-2.11,4.19,9.07
24026,-2.75,-2.19,19.00,-1.62,2.89,9.39
24036,-0.38,-0.69,24.75,-2.19,3.01,8.56
24048,2.75,2.94,27.38,-3.04,4.60,8.95
24058,-1.00,2.62,25.81,-3.32,3.80,8.60
24070,2.19,2.81,21.31,-3.56,3.75,8.57
24076,3.06,1.12,19.06,-3.27,4.12,8.48
24086,2.94,1.69,11.38,-3.50,4.60,8.15
24098,1.31,-1.44,4.31,-3.49,4.25,8.34
24108,5.31,-3.75,-0.75,-2.40,4.50,7.87
24120,1.69,-4.00,-3.25,-2.50,3.06,9.07
24126,6.75,-1.19,-3.81,-2.32,4.25,8.10
24136,4.38,-0.75,-2.06,-2.82,4.15,8.58
24148,2.94,-3.44,0.44,-1.81,3.61,8.86
24158,7.38,-2.44,2.69,-2.02,4.28,8.45
24170,2.12,0.00,-0.44,-1.42,2.85,8.73
24176,8.31,1.69,-2.56,-1.83,3.45,8.74
24186,6.88,1.25,-3.50,-1.87,3.42,8.83
24198,9.62,3.38,-4.12,-2.33,4.00,8.28
24208,6.38,2.94,-3.50,-2.45,3.49,8.82
24221,8.44,3.50,-3.38,-2.44,3.64,8.31
24226,10.38,5.38,-2.62,-2.71,4.29,8.51
24236,4.25,4.75,1.44,-1.96,3.41,8.22
24248,9.62,8.19,1.25,-3.21,4.58,8.29
24258,7.88,5.38,-0.50,-2.25,3.19,8.17
24271,10.50,5.88,-2.44,-3.17,4.19,8.52
24277,9.25,4.81,-3.12,-2.66,3.81,8.19
24287,11.25,6.38,-3.94,-2.74,4.02,8.32
24297,10.44,6.25,-3.25,-2.71,3.87,8.63
24309,10.19,6.62,-2.50,-2.40,3.95,8.53
24320,9.75,7.12,-2.00,-2.50,4.05,8.42
24326,10.50,8.12,-2.00,-2.61,3.97,8.54
24337,10.00,6.50,-1.69,-2.11,3.83,8.81
24348,10.00,7.44,-2.31,-1.77,3.53,8.37
24359,10.88,8.62,-2.06,-1.77,3.53,8.43
24377,14.06,12.38,-1.25,-2.83,3.73,8.61
24387,16.00,-0.06,-0.06,-2.51,-0.01,-0.01
24398,17.19,15.12,-0.06,-2.53,-0.01,-0.01
24411,19.38,16.31,-0.06,-2.70,4.13,8.25
24427,18.62,15.94,-0.75,-2.79,4.44,8.30
24437,17.38,13.69,-0.81,-2.13,4.18,8.22
24449,17.06,13.56,-1.50,-2.52,4.47,8.18
24459,15.69,13.19,-1.94,-2.75,4.20,8.13
24471,17.12,13.50,-2.25,-3.09,4.37,8.26
24477,16.50,13.12,-2.44,-2.44,4.02,8.21
24487,18.00,15.44,-2.62,-2.66,3.92,8.11
24498,19.56,16.69,-2.06,-2.59,3.96,8.21
24509,20.75,19.31,-2.25,-2.89,4.14,8.06
24521,22.88,20.75,-2.50,-2.80,4.16,8.27
24526,24.25,22.75,-3.44,-2.81,4.32,8.15
24537,24.88,24.44,-4.62,-2.70,4.28,8.18
24547,25.00,26.81,-5.81,-2.95,4.14,7.95
24559,27.75,29.19,-6.88,-2.80,4.51,8.08
24576,29.12,33.75,-5.62,-2.84,4.28,7.79
24587,31.31,36.38,-7.62,-3.32,4.18,7.79
24598,34.75,37.62,-9.62,-3.27,4.49,7.54
24610,35.25,41.06,-10.81,-3.29,4.42,7.51
24620,34.56,47.88,-13.12,-3.50,4.10,7.01
24626,38.00,52.50,-15.88,-3.89,3.98,7.59
24637,47.25,53.12,-17.56,-3.03,4.93,7.96
24648,48.12,56.19,-21.56,-3.55,4.67,8.05
24659,49.88,59.75,-24.19,-3.05,4.13,7.11
24677,67.81,-0.06,-0.06,-2.48,-0.01,-0.01
24687,56.38,70.25,-26.19,-2.99,5.36,7.68
24698,60.19,77.94,-7.00,-3.18,5.78,7.37
24709,56.44,86.56,-25.12,-2.93,4.72,8.05
24720,60.25,97.19,-15.38,-4.42,5.10,7.41
24726,67.62,103.19,-36.31,-4.44,5.62,7.29
24737,63.56,112.06,-40.62,-3.79,6.29,6.49
24748,43.88,130.31,-45.62,-4.01,4.87,7.41
24759,40.44,147.94,-51.19,-3.79,4.77,7.37
24770,50.25,162.38,-57.62,-4.64,4.79,7.43
24777,46.12,177.12,-57.12,-3.96,4.66,7.67
24787,54.50,194.25,-62.88,-4.65,5.13,7.40
24798,62.56,211.12,-66.56,-4.60,4.94,7.69
24809,78.06,227.31,-69.44,-5.08,4.13,8.94
24821,110.00,243.00,-74.81,-6.29,5.08,9.39
24827,139.50,253.56,-75.00,-7.37,5.69,10.56
24837,158.06,269.12,-76.50,-7.04,7.22,8.46
24848,147.19,291.56,-85.31,-7.52,7.11,7.27
24859,141.69,306.75,-107.75,-8.54,6.33,6.15
24871,140.62,326.19,-138.06,-9.12,5.50,6.62
24877,188.00,335.00,-159.06,-10.28,9.02,10.25
24888,244.56,318.06,-142.69,-10.14,5.65,6.85
24899,261.19,311.44,-148.94,-11.24,2.63,7.65
24909,309.62,282.31,-151.12,-12.25,6.47,8.36
24921,252.81,192.06,-144.25,-17.34,13.54,30.01
24927,164.31,54.44,-79.50,-28.22,27.61,34.29
24938,-38.88,-111.06,-27.31,-16.52,16.40,23.38
24949,-78.38,-5.25,-0.06,-2.64,3.59,11.09
24960,-73.00,-246.75,-16.56,-1.49,1.96,7.08
24977,-72.38,-252.88,-27.19,1.09,-2.20,4.27
24987,-34.00,-243.12,-18.12,1.08,3.85,2.86
24999,-44.19,-230.06,0.81,1.40,5.02,3.48
25010,-61.62,-223.25,24.12,0.85,7.21,4.88
25027,-95.88,-212.25,58.00,-3.74,9.42,6.57
25038,-121.06,-228.75,72.06,-2.40,8.83,6.87
25049,-132.56,-244.88,98.50,-1.84,4.84,6.41
25060,-110.44,-240.31,102.50,-4.05,6.45,4.43
25078,-115.75,-226.19,105.31,-3.66,3.10,5.00
25088,-103.25,-225.12,103.44,-6.93,4.84,8.24
25098,-94.25,-233.44,104.44,-7.79,6.04,8.76
25110,-90.69,-244.94,107.38,-7.04,6.69,8.07
25128,-89.06,-238.06,107.62,-5.63,6.99,6.19
25137,-96.88,-221.62,109.88,-6.43,7.69,7.64
25148,-112.25,-205.50,114.50,-7.28,8.69,8.75
25159,-123.81,-200.12,112.94,-9.55,7.74,11.11
25178,-119.06,-207.50,100.00,-10.06,7.29,10.98
25188,-119.62,-207.94,89.81,-10.12,8.03,10.97
25198,-119.06,-211.25,78.00,-11.26,8.36,10.94
25209,-107.88,-219.44,72.69,-11.02,10.23,10.56
25228,-100.12,-214.19,84.25,-10.22,11.86,8.08
25238,-95.31,-202.88,95.44,-10.86,11.44,8.15
25248,-86.75,-192.12,109.12,-11.37,10.94,7.46
25259,-78.69,-181.62,118.81,-11.67,9.50,6.87
25278,-68.44,-155.00,122.06,-14.00,4.72,4.46
25288,-59.62,-135.56,114.25,-14.05,3.81,2.56
25298,-51.06,-110.56,100.00,-15.14,2.92,-0.32
25309,-45.25,-83.81,85.31,-16.01,2.50,-1.36
25328,-17.88,-38.38,56.81,-16.26,2.19,-3.40
25338,-2.56,-18.31,40.44,-15.94,2.99,-3.89
25348,7.81,0.56,25.00,-15.16,2.84,-3.72
25359,15.06,21.38,10.50,-14.40,3.26,-3.15
25378,8.69,63.31,-16.88,-10.75,3.89,1.15
25388,13.94,72.38,-25.44,-12.85,4.79,4.21
25398,19.94,75.56,-29.50,-7.51,4.35,-0.01
25409,11.06,-0.06,-0.06,0.69,4.70,8.97
25429,-18.38,7.00,-41.25,17.18,9.74,26.39
25438,-7.25,21.12,-61.38,20.39,2.63,-9.50
25448,-18.56,160.12,-66.69,9.32,-3.70,-11.73
25460,-2.12,243.25,-52.56,-9.95,3.80,12.09
25479,-15.12,106.00,21.88,-9.17,-10.57,14.16
25488,48.44,71.62,-23.69,-6.03,-5.93,12.82
25497,73.12,69.62,-37.12,-4.90,2.60,12.94
25510,70.19,61.12,-17.00,-4.38,9.10,11.42
25528,26.38,59.25,11.12,-3.04,2.76,8.96
25538,42.50,45.88,-0.50,-4.75,0.03,9.65
25547,53.62,30.56,-10.75,-3.29,4.83,8.93
25560,47.75,28.25,-9.06,-1.90,6.62,7.85
25577,32.44,32.81,-4.81,-3.14,8.01,8.40
25580,10.75,25.88,-0.38,-2.92,4.32,9.17
25588,8.88,15.31,-2.31,-2.12,4.48,8.45
25597,6.25,12.06,-7.94,-1.66,4.21,9.18
25609,4.00,10.81,-5.31,-1.88,4.28,8.96
25628,-1.81,3.75,3.62,-2.56,2.86,8.93
25630,2.88,4.38,2.88,-3.40,3.17,9.17
25638,3.06,0.94,2.38,-2.50,3.92,10.32
25647,4.56,2.38,1.25,-3.19,3.41,9.31
25659,5.62,1.25,0.44,-3.25,3.06,9.47
25677,9.06,-1.25,1.25,-2.49,3.42,8.95
25680,9.25,1.75,1.62,-2.29,2.81,8.79
25688,11.25,1.25,4.25,-2.31,3.46,8.34
25697,11.44,4.19,7.00,-2.76,3.21,8.46
25709,15.06,2.69,9.81,-4.09,4.27,8.62
25728,9.94,-0.88,12.19,-2.76,4.05,8.45
25731,6.31,0.88,12.25,-2.86,3.91,8.60
25738,5.94,0.88,12.25,-2.92,3.92,8.12
25747,7.44,0.94,12.00,-3.65,3.85,8.39
25759,8.44,-2.56,11.50,-3.45,4.91,8.17
25777,2.75,-3.81,5.50,-2.44,3.28,8.75
25780,9.81,-0.75,-0.44,-2.49,3.68,8.44
25788,10.50,-2.50,0.81,-2.13,3.74,8.62
25797,8.75,-1.50,1.31,-2.34,3.99,8.91
25808,5.25,0.31,0.25,-2.07,3.12,8.61
25828,6.25,2.50,1.81,-1.25,2.71,8.97
25838,11.06,5.56,1.94,-1.78,3.81,8.74
25847,6.81,5.75,2.56,-2.10,4.33,8.46
25859,7.62,4.62,1.44,-1.83,4.15,8.50
25878,7.94,5.94,2.44,-2.34,3.95,8.36
25888,5.56,5.50,3.81,-3.05,4.09,8.22
25897,5.62,4.12,4.81,-2.96,3.72,8.36
25908,5.44,3.12,6.12,-2.64,4.22,8.18
25927,3.31,2.81,5.62,-3.15,3.88,8.32
25930,3.94,2.38,5.12,-3.60,4.22,8.21
25938,2.44,1.00,5.50,-3.63,4.25,8.14
25947,4.56,-1.25,3.25,-3.36,3.45,8.40
25958,2.88,-1.62,2.44,-2.69,4.68,8.10
25977,2.75,-0.06,-0.06,-2.43,3.64,8.53
25979,3.81,-1.81,2.62,-1.99,4.63,8.20
25988,0.69,-1.38,4.69,-2.22,3.37,8.72
25997,5.00,-1.62,3.62,-2.21,4.33,8.51
26008,0.88,-0.25,1.00,-1.89,3.54,8.61
26027,3.81,-0.94,1.44,-2.01,3.44,8.82
26030,2.12,0.12,2.12,-2.13,3.60,8.69
26038,2.62,2.12,-0.12,-2.45,3.57,8.58
26047,5.31,1.06,-0.25,-1.95,3.97,8.43
26058,5.31,1.06,-0.25,-2.26,3.66,8.57
26078,4.69,3.44,-0.31,-2.84,4.07,8.46
26080,6.00,4.44,-0.69,-2.32,3.70,8.38
26088,6.00,4.44,-0.69,-2.81,3.84,8.36
26097,6.44,6.31,2.12,-2.61,4.13,8.21
26108,6.44,6.31,2.12,-2.85,4.03,8.16
26121,8.56,6.19,1.56,-2.89,4.22,8.23
26128,10.25,6.44,-1.06,-2.79,4.09,8.20
26138,10.69,8.31,-2.50,-2.37,4.01,8.28
26147,11.88,9.19,-3.12,-2.73,3.69,8.41
26157,11.88,9.19,-3.12,-2.26,4.01,8.31
26170,13.75,9.50,-2.56,-2.57,3.91,8.21
26180,15.44,12.19,-2.56,-2.38,3.82,8.31
26188,16.88,13.56,-2.38,-2.84,4.03,8.32
26197,20.06,17.06,-1.75,-2.39,4.03,8.52
26207,20.06,17.06,-1.75,-2.52,4.18,8.32
26219,22.31,20.38,-2.31,-2.44,4.01,8.21
26228,22.69,22.81,-2.75,-2.52,3.94,8.20
26238,24.19,26.06,-4.00,-3.03,3.85,8.24
26247,24.19,26.06,-4.00,-3.13,3.98,8.09
26257,26.94,33.69,-6.31,-2.59,4.37,8.05
26270,29.62,37.50,-7.19,-2.92,3.60,7.10
26278,29.38,44.31,-11.62,-2.85,4.48,8.41
26288,37.88,47.81,-12.94,-2.61,5.14,7.99
26297,39.81,58.06,-14.50,-2.30,4.59,7.82
26307,39.81,58.06,-14.50,-2.20,4.47,7.82
26320,45.56,64.12,-17.12,-2.14,4.66,8.17
26328,48.19,69.88,-20.56,-3.13,4.91,8.49
26338,50.44,75.31,-24.62,-2.94,5.21,7.64
26347,53.88,78.38,-27.00,-3.47,5.38,-0.01
26357,59.31,83.44,-31.06,-2.73,5.19,7.32
26370,60.50,90.69,-33.75,-3.44,4.54,8.08
26378,61.62,102.94,-38.19,-4.10,5.17,7.23
26388,63.31,112.19,-43.56,-4.15,5.43,7.24
26397,63.31,112.19,-43.56,-4.08,5.47,7.06
26407,59.31,123.62,-48.88,-3.75,4.82,6.95
26419,49.06,157.00,-67.38,-5.33,6.11,6.30
26428,47.31,174.44,-76.88,-4.97,5.89,6.83
26438,25.50,189.31,-80.94,-5.10,5.77,6.71
26447,12.50,201.88,-86.31,-5.75,5.80,8.01
26457,-1.19,214.69,-88.31,-5.38,5.02,9.35
26469,-9.06,223.69,-87.94,-5.52,5.01,10.19
26478,-0.81,231.56,-87.06,-5.77,3.00,11.12
26488,42.88,235.94,-86.00,-6.21,3.81,10.21
26497,42.88,235.94,-86.00,-6.44,5.10,9.74
26507,85.00,242.75,-83.69,-6.87,6.57,8.07
26518,141.38,260.12,-93.75,-7.30,5.26,8.19
26528,136.81,266.81,-103.81,-7.29,4.83,8.40
26538,148.50,272.62,-112.06,-6.33,2.76,8.90
26547,148.50,272.62,-112.06,-7.97,2.70,9.56
26557,182.88,278.06,-124.75,-10.85,-0.14,5.28
26568,283.94,300.88,-167.94,-16.34,10.71,11.32
26578,374.50,302.69,-177.31,-24.60,24.47,33.29
26588,184.75,107.75,-133.38,-12.99,12.57,22.43
26597,63.69,-98.25,-59.56,-3.08,6.89,15.24
26607,23.88,-234.00,-33.06,0.73,5.58,10.29
26619,2.12,-258.44,-34.81,1.69,4.24,7.21
26629,-36.81,-228.19,-39.50,0.18,0.04,4.64
26638,-42.69,-215.50,-26.06,0.92,0.83,3.77
26647,-42.69,-215.50,-26.06,1.56,2.76,3.17
26657,-18.38,-224.50,0.44,1.31,6.01,4.11
26669,-15.06,-217.94,51.19,-0.43,7.28,5.80
26679,-32.06,-209.25,57.81,-0.87,7.92,7.08
26689,-56.94,-213.06,69.19,-1.88,6.64,7.84
26697,-56.94,-213.06,69.19,-2.42,2.52,6.38
26707,-6.56,-0.06,-0.06,-2.72,0.91,5.54
26719,-81.06,-231.38,106.56,-2.83,0.48,5.11
26729,-70.75,-232.12,107.06,-4.47,1.53,5.95
26739,-63.94,-230.06,99.81,-5.11,2.68,6.60
26747,-63.31,-230.75,90.62,-5.57,3.07,7.22
26758,-63.88,-235.31,87.50,-5.07,3.55,6.86
26769,-58.94,-234.94,87.88,-4.56,6.26,8.01
26779,-56.12,-226.88,91.19,-5.12,7.00,7.94
26789,-67.62,-211.00,97.69,-6.21,5.53,8.25
26797,-67.62,-211.00,97.69,-7.79,6.26,9.32
26808,-74.81,-184.12,105.62,-8.72,6.64,10.51
26819,-74.12,-177.62,104.38,-10.08,8.26,11.94
26829,-72.56,-179.94,103.25,-10.85,9.58,12.70
26839,-77.19,-187.81,105.81,-10.49,10.86,12.00
26847,-85.25,-196.69,110.25,-10.44,10.74,11.34
26858,-97.50,-199.69,115.06,-10.41,10.35,10.75
26869,-108.56,-198.12,119.62,-10.22,8.55,10.49
26879,-112.75,-194.50,121.69,-10.82,8.19,10.91
26889,-112.12,-190.12,121.00,-10.99,7.78,10.75
26897,-112.12,-190.12,121.00,-11.21,7.45,11.02
26908,-100.44,-191.44,110.00,-12.00,7.17,10.35
26919,-90.06,-195.56,104.56,-11.54,6.67,9.22
26929,-77.69,-197.06,99.50,-11.60,6.20,8.03
26939,-66.31,-191.62,93.88,-11.32,4.15,5.12
26947,-66.31,-191.62,93.88,-11.55,3.40,3.98
26958,-43.50,-160.94,76.62,-11.95,3.01,2.92
26970,-27.69,-140.56,63.81,-12.72,3.27,1.76
26980,-12.56,-122.69,51.94,-12.59,3.40,-0.79
26989,3.25,-104.12,42.19,-12.69,3.33,-1.67
26997,3.25,-104.12,42.19,-12.73,3.73,-2.09
27008,19.56,-58.31,31.88,-12.31,3.84,-2.93
27019,20.19,-31.81,30.44,-11.61,3.72,-3.01
27029,19.12,-3.88,31.00,-11.06,4.33,-2.31
27039,20.88,23.25,27.69,-11.14,4.83,-1.13
27047,20.88,23.25,27.69,-8.80,7.71,0.18
27058,23.62,-0.06,-0.06,-6.17,6.99,2.36
27069,0.50,79.31,22.62,-10.71,1.94,7.36
27079,6.62,89.44,25.75,-2.53,5.99,6.24
27089,19.00,87.31,28.81,10.17,-1.68,18.63
27097,19.00,87.31,28.81,11.76,6.27,27.41
27108,12.75,34.44,21.88,18.16,7.03,14.27
27119,-42.75,55.69,-23.06,2.40,-7.62,-3.14
27130,-19.06,145.12,-48.75,-8.20,5.20,10.28
27138,19.25,182.50,-42.06,-13.39,4.54,16.11
27147,19.25,182.50,-42.06,-4.61,-7.51,14.00
27158,-16.75,131.50,-23.31,-5.94,-5.23,12.76
27170,18.94,122.38,-51.75,-6.79,-0.74,12.96
27180,50.94,107.38,-52.81,-5.98,5.24,13.86
27189,61.50,88.12,-31.75,-1.23,4.87,9.78
27197,61.50,88.12,-31.75,-2.10,3.97,9.82
27209,44.62,90.50,-9.88,-3.91,4.21,10.99
27220,49.94,84.75,-17.75,-4.08,4.85,10.17
27230,52.88,67.81,-21.25,-4.57,5.21,10.25
27239,46.62,57.38,-19.38,-4.81,6.75,11.16
27247,46.62,57.38,-19.38,-5.20,8.04,10.50
27259,17.25,28.44,-7.44,-2.00,4.96,8.87
27270,3.38,23.19,-8.94,-2.54,-0.01,-0.01
27280,-0.56,23.38,-12.19,-2.94,3.77,10.15
27289,-4.25,17.62,-14.31,-3.55,3.95,9.28
27297,-4.25,17.62,-14.31,-2.82,3.61,9.23
27308,6.75,3.31,-9.38,-2.96,4.14,9.72
27320,8.44,4.50,-5.94,-3.04,4.10,9.43
27330,2.00,3.81,-2.69,-2.58,2.94,9.57
27339,2.19,4.19,-0.75,-3.05,3.56,9.24
27347,2.19,4.19,-0.75,-3.05,3.56,9.24
27358,4.50,0.31,3.44,-2.50,3.21,9.21
27369,5.62,-1.38,4.56,-1.80,3.63,8.72
27380,4.00,-1.06,8.12,-1.48,4.29,8.98
27389,-2.75,-0.88,21.69,-0.80,3.25,8.48
27397,-2.75,-0.88,21.69,-2.63,3.98,8.18
27408,-2.00,4.44,33.62,-3.74,4.11,8.60
27420,-1.75,5.56,31.38,-4.38,4.53,8.72
27430,0.94,-0.81,22.50,-2.60,3.77,8.76
27439,5.38,-3.62,9.00,-2.62,3.56,9.13
27447,5.38,-3.62,9.00,-2.15,4.27,7.83
27458,7.19,-4.75,-0.69,-3.59,4.04,8.80
27470,4.44,-2.06,-2.88,-2.18,3.81,8.66
27480,0.69,-0.44,-1.06,-2.38,3.48,8.90
27489,2.12,-1.00,3.56,-2.52,3.88,8.33
27497,2.12,-1.00,3.56,-2.52,3.88,8.33
27509,4.81,3.25,2.44,-2.71,4.35,8.80
27520,4.19,2.38,-0.38,-1.64,2.88,8.78
27530,3.94,0.81,-0.06,-1.98,3.56,8.57
27539,7.50,2.38,-3.94,-2.29,3.74,8.82
27547,7.50,2.38,-3.94,-1.91,3.65,8.71
27559,5.31,-0.25,-2.12,-1.62,3.53,8.57
27570,5.25,2.31,-2.50,-1.96,3.63,8.67
27580,6.31,1.88,-2.50,-2.00,3.71,8.45
27589,5.12,2.00,-2.25,-2.40,3.38,8.70
27597,5.12,2.00,-2.25,-2.01,3.93,8.61
27609,6.19,1.69,0.38,-2.68,3.74,8.58
27620,3.25,1.75,1.75,-2.56,3.97,8.26
27630,5.38,1.31,2.19,-2.97,3.93,8.41
27639,2.81,0.25,2.06,-2.51,3.76,8.43
27647,2.81,0.25,2.06,-2.51,3.76,8.43
27658,6.31,0.50,-0.12,-2.59,4.17,8.48
27670,4.00,-0.44,-1.94,-2.43,3.42,8.45
27680,6.31,0.69,-0.06,-2.73,4.02,8.56
27689,5.88,0.69,-3.06,-2.30,3.77,8.42
27697,5.88,0.69,-3.06,-2.30,3.77,8.42
27708,3.94,-0.31,-1.81,-2.38,3.53,8.58
27720,5.75,1.50,-1.12,-2.35,3.90,8.49
27730,7.12,1.75,-1.50,-1.95,3.44,8.60
27740,6.38,2.25,-1.62,-2.38,3.78,8.43
27747,6.38,2.25,-1.62,-2.38,3.78,8.43
27758,9.88,3.75,-2.06,-2.52,3.93,8.49
27770,9.50,5.75,-1.19,-2.42,3.60,8.50
27780,10.50,6.38,-0.50,-2.31,3.63,8.60
27789,10.94,6.56,-0.81,-2.19,3.97,8.36
27797,10.94,6.56,-0.81,-2.19,3.97,8.36
27808,11.88,7.25,-1.38,-2.46,3.99,8.21
27819,12.88,8.25,-1.31,-2.29,3.81,8.21
27830,13.88,8.75,-2.00,-2.27,3.93,8.63
27839,14.81,9.50,-2.81,-2.29,-0.01,-0.01
27847,14.81,9.50,-2.81,-2.29,3.79,8.28
27858,16.12,12.25,-3.38,-2.39,3.81,8.41
27870,18.00,14.31,-2.75,-2.55,3.83,8.34
27880,19.56,16.56,-2.75,-2.18,3.93,8.41
27889,20.88,19.31,-3.25,-3.12,3.92,8.25
27897,20.88,19.31,-3.25,-2.61,3.95,8.37
27908,24.06,25.38,-5.12,-2.78,3.49,8.43
27919,26.69,29.69,-5.88,-2.54,4.17,8.18
27930,29.25,33.94,-6.44,-3.02,3.66,7.13
27939,29.62,40.88,-9.88,-3.12,3.44,8.23
27947,29.62,40.88,-9.88,-3.12,3.44,8.23
27958,35.50,47.19,-12.44,-2.07,4.11,8.26
27970,38.44,57.12,-13.56,-2.46,4.44,7.69
27980,44.31,63.50,-15.62,-1.90,4.32,7.80
27990,45.31,70.81,-18.62,-2.27,5.30,8.59
27997,45.31,70.81,-18.62,-2.27,5.30,8.59
28008,52.88,75.31,-0.06,-2.59,5.03,8.54
28020,53.75,81.31,-31.81,-2.75,5.04,7.74
28030,59.44,88.00,-35.94,-3.36,4.99,7.68
28039,59.69,97.31,-38.00,-3.67,4.30,7.67
28047,59.69,97.31,-38.00,-3.67,4.30,7.67
28058,60.44,108.75,-38.88,-3.75,5.06,7.02
28071,55.12,128.62,-50.50,-4.18,5.63,6.75
28080,45.00,143.50,-58.19,-4.42,4.97,6.92
28090,37.12,157.12,-65.50,-4.41,4.62,6.80
28097,37.12,157.12,-65.50,-5.25,6.47,6.40
28108,21.62,182.69,-77.38,-4.87,5.62,7.03
28120,6.19,193.19,-83.25,-5.33,5.89,7.41
28130,-3.69,201.00,-87.81,-5.21,5.49,8.73
28140,-15.62,208.25,-88.19,-5.07,5.04,9.00
28147,-15.62,208.25,-88.19,-5.07,5.04,9.00
28159,-10.69,223.75,-88.88,-6.19,3.86,10.70
28170,75.94,245.25,-90.81,-6.06,4.79,9.76
28180,106.50,255.88,-97.06,-6.66,5.66,9.14
28190,131.50,269.00,-105.69,-7.88,6.65,8.99
28197,131.50,269.00,-105.69,-7.88,6.65,8.99
28209,134.88,276.06,-114.31,-7.49,2.57,9.20
28220,181.50,286.62,-136.62,-7.58,1.23,9.03
28230,246.94,289.38,-157.62,-8.97,6.51,8.51
28240,262.06,300.06,-161.75,-11.64,-0.65,5.68
28247,262.06,300.06,-161.75,-11.64,-0.65,5.68
28258,369.62,-0.06,-0.06,-31.01,17.97,34.97
28270,91.50,-42.88,-85.00,-5.87,9.69,18.34
28280,32.25,-244.50,-27.12,2.49,8.23,11.17
28290,4.50,-295.06,-14.38,5.29,7.01,5.37
28297,4.50,-295.06,-14.38,5.29,7.01,5.37
28308,-64.06,-234.00,-20.44,-1.04,1.69,5.92
28320,-27.50,-207.94,11.50,-0.32,4.14,5.89
28330,-9.44,-231.00,46.69,1.51,5.63,4.97
28340,-21.00,-236.12,69.62,1.72,5.63,4.83
28347,-21.00,-236.12,69.62,1.72,5.63,4.83
28359,-43.31,-225.25,78.94,-0.51,4.89,6.69
28370,-80.06,-4.19,-0.06,-2.35,3.49,7.30
28380,-82.69,-220.94,106.38,-2.97,1.86,7.09
28390,-75.00,-233.56,113.69,-3.73,1.47,6.45
28397,-75.00,-233.56,113.69,-3.73,1.47,6.45
28409,-71.12,-240.88,111.62,-4.15,2.27,6.34
28420,-63.94,-243.38,95.56,-5.13,3.84,7.21
28430,-58.12,-245.69,93.38,-4.79,5.22,7.62
28440,-61.00,-247.44,97.62,-4.12,5.45,8.02
28447,-61.00,-247.44,97.62,-4.12,5.45,8.02
28458,-64.94,-238.50,104.06,-5.83,4.55,7.64
28470,-69.00,-203.62,105.81,-6.87,4.65,8.25
28480,-63.06,-190.62,101.00,-9.36,7.27,11.60
28490,-55.69,-185.31,96.12,-10.81,9.25,13.20
28497,-55.69,-185.31,96.12,-10.81,9.25,13.20
28508,-52.44,-188.06,97.12,-11.07,11.64,12.14
28520,-67.56,-201.31,110.75,-11.96,12.99,12.59
28530,-78.69,-203.44,118.25,-13.18,13.48,13.59
28540,-92.12,-209.50,128.69,-13.22,12.20,12.46
28547,-92.12,-209.50,128.69,-13.22,12.20,12.46
28558,-107.25,-215.69,138.88,-11.69,7.01,9.59
28570,-104.50,-203.06,135.62,-12.02,6.63,9.72
28581,-98.19,-199.00,128.00,-11.96,6.45,9.46
28590,-91.62,-194.56,119.75,-12.30,6.07,8.30
28597,-91.62,-194.56,119.75,-12.30,6.07,8.30
28608,-83.94,-189.12,110.88,-12.32,5.46,7.33
28620,-62.19,-172.25,91.44,-12.29,2.93,3.08
28631,-13.12,-0.06,-0.06,-12.36,2.36,1.90
28640,-26.06,-140.88,64.56,-12.96,2.59,0.85
28647,-26.06,-140.88,64.56,-12.96,2.59,0.85
28659,-6.81,-121.31,52.56,-12.30,3.85,-2.00
28670,28.81,-77.19,41.25,-11.86,4.78,-2.88
28681,28.19,-47.31,39.81,-11.75,4.96,-3.29
28690,18.00,-12.69,40.56,-12.09,4.28,-2.90
28697,18.00,-12.69,40.56,-12.09,4.28,-2.90
28708,11.12,18.69,41.44,-12.07,4.80,-1.94
28720,17.44,58.31,40.56,-11.19,6.31,-0.69
28731,16.81,73.94,45.81,-8.43,6.33,2.45
28739,-7.44,102.69,-0.06,-9.01,3.39,4.31
28747,-7.44,102.69,44.44,-9.01,3.39,4.31
28758,7.25,108.81,52.62,16.17,14.65,25.57
28771,14.50,41.00,45.94,22.68,0.34,4.24
28781,-67.31,85.44,-14.44,19.47,-12.45,-11.68
28789,-67.31,85.44,-14.44,-12.61,11.69,10.40
28797,-2.94,187.12,-37.88,-12.61,11.69,10.40
28808,24.69,234.25,-15.25,-8.02,-13.53,16.40
28820,-25.69,171.88,-28.50,-7.81,-10.79,16.28
28831,22.81,155.69,-63.12,-9.92,0.07,15.46
28840,22.81,155.69,-63.12,-6.89,7.78,15.11
28847,60.25,120.75,-59.00,-6.89,7.78,15.11
28858,72.50,83.00,-29.88,-0.48,5.93,8.93
28870,48.69,86.19,-6.62,-5.45,3.50,12.42
28881,48.62,85.94,-23.00,-4.94,4.27,11.28
28890,48.62,85.94,-23.00,-3.51,4.50,9.94
28897,47.12,65.31,-26.81,-3.51,4.50,9.94
28907,44.00,57.75,-21.06,-4.73,8.46,9.95
28920,-1.81,39.25,-9.38,-3.46,5.67,10.53
28930,-8.81,32.62,-7.44,-3.35,3.93,9.83
28940,-8.81,32.62,-7.44,-2.75,3.12,10.53
28947,-9.12,21.31,-7.94,-2.75,3.12,10.53
28957,2.19,13.75,-9.50,-3.58,3.58,10.39
28970,10.69,7.06,-10.50,-3.44,4.10,9.33
28980,11.31,-2.50,-2.75,-2.12,3.97,9.01
28990,11.31,-2.50,-2.75,-2.65,3.51,9.45
28997,4.50,-4.12,1.94,-2.65,3.51,9.45
29007,-0.88,-1.31,5.81,-2.60,3.53,9.39
29020,-1.88,-8.25,24.88,-1.57,2.82,8.44
29030,5.12,-2.62,22.38,-2.69,3.63,8.39
29040,5.12,-2.62,22.38,-3.67,3.77,8.35
29047,3.88,3.25,23.19,-3.67,3.77,8.35
29057,1.69,1.94,25.69,-3.94,3.20,8.53
29070,11.12,-0.12,24.88,-2.62,3.66,8.11
29081,3.44,3.50,19.12,-4.08,4.52,8.50
29090,3.44,3.50,19.12,-3.04,3.76,9.14
29096,-0.69,0.94,10.25,-3.04,3.76,9.14
29106,3.75,-4.94,4.81,-2.37,3.42,8.36
29119,9.81,-4.56,-2.56,-2.35,3.42,8.93
29130,8.06,-5.81,-5.25,-1.93,3.37,8.90
29139,8.06,-5.81,-0.06,-1.98,3.80,9.16
29146,8.88,-4.94,-4.31,-1.98,3.80,9.16
29156,7.94,-3.62,-3.19,-1.04,2.79,8.68
29168,5.38,-0.81,-0.75,-2.17,3.59,9.02
29181,6.81,2.94,0.31,-2.24,3.31,8.70
29189,6.81,2.94,0.31,-2.02,3.69,8.74
29196,9.69,3.56,-1.81,-2.02,3.69,8.74
29206,7.81,1.69,-3.00,-2.12,3.26,8.53
29219,10.44,4.19,-3.94,-2.58,3.57,8.31
29231,8.31,3.75,1.50,-2.63,4.02,8.42
29240,8.31,3.75,1.50,-2.95,3.93,8.42
29247,6.69,4.62,5.88,-2.95,3.93,8.42
29256,5.75,3.31,7.31,-3.37,4.39,8.02
29269,6.56,2.94,7.00,-3.05,3.95,8.27
29281,4.88,0.69,1.94,-2.19,3.39,8.49
29290,4.88,0.69,1.94,-2.36,3.84,8.61
29296,4.44,-1.56,-1.12,-2.36,3.84,8.61
29306,5.69,-1.31,-1.56,-2.14,3.84,8.50
29320,4.25,-1.44,-1.25,-2.10,3.67,9.02
29331,3.69,0.00,-0.75,-1.38,3.09,8.72
29340,3.69,0.00,-0.75,-2.10,3.76,8.82
29346,3.81,1.25,-1.19,-2.10,3.76,8.82
29356,4.19,1.44,-0.88,-2.02,3.65,8.55
29369,5.00,2.06,-0.94,-2.28,3.68,8.63
29381,5.25,3.19,-0.75,-2.00,-0.01,-0.01
29390,5.75,2.62,-0.62,-2.43,3.80,8.36
29396,6.25,4.06,-1.44,-2.43,3.80,8.36
29406,6.75,4.75,-1.44,-2.86,3.68,8.27
29419,8.25,6.06,-1.44,-2.77,3.84,8.33
29431,8.19,5.94,-1.31,-2.56,3.54,8.25
29439,9.06,6.75,-1.00,-2.56,3.54,8.25
29446,9.81,7.31,-0.88,-2.87,3.79,8.34
29456,11.44,8.88,-0.38,-2.89,3.69,8.40
29467,12.00,9.81,-0.44,-2.06,3.70,8.43
29481,11.88,11.31,-0.56,-2.26,3.98,8.51
29489,13.69,10.62,-1.00,-2.26,3.98,8.51
29496,14.25,9.56,-1.81,-2.61,4.14,8.35
29506,14.38,10.44,-0.06,-2.30,3.88,8.40
29518,14.19,10.62,-3.00,-2.08,-0.01,-0.01
29530,14.44,11.81,-3.81,-2.43,3.45,8.18
29539,15.69,12.38,-4.44,-2.77,3.76,8.59
29546,17.56,14.25,-5.31,-2.77,3.76,8.59
29556,19.75,17.00,-5.56,-2.79,3.19,8.21
29568,24.00,22.81,-6.25,-2.39,4.25,7.59
29588,24.00,27.31,-6.50,-3.12,3.76,8.51
29589,24.81,34.38,-9.50,-2.60,4.68,7.92
29596,33.94,33.69,-9.19,-2.60,4.68,7.92
29606,33.00,37.38,-9.81,-3.02,4.65,8.42
29619,34.81,42.19,-11.12,-1.44,4.24,7.82
29630,35.50,45.62,-14.81,-1.95,4.58,8.20
29639,42.50,50.06,-22.44,-2.27,4.55,8.25
29646,43.00,52.31,-26.00,-2.27,4.55,8.25
29656,49.75,59.19,-12.75,-2.57,4.78,7.98
29668,51.38,67.00,-30.25,-2.02,4.38,8.15
29680,53.25,79.25,-32.25,-3.51,4.64,7.63
29689,65.69,89.62,-31.50,-3.51,4.64,7.63
29696,72.69,100.00,-36.56,-3.93,4.74,7.50
29706,76.00,112.62,-42.69,-3.55,4.80,7.51
29718,74.31,126.69,-49.88,-3.81,6.05,7.11
29730,61.44,141.38,-57.44,-4.01,4.25,7.53
29739,59.88,156.25,-65.25,-4.01,4.25,7.53
29746,61.12,170.12,-72.19,-4.40,5.78,-0.01
29756,40.75,180.62,-78.50,-3.53,4.60,7.65
29768,41.19,191.06,-87.81,-4.97,6.62,6.93
29780,22.31,201.06,-91.00,-5.96,6.03,8.98
29789,3.62,208.88,-91.75,-5.96,6.03,8.98
29796,-12.75,215.69,-86.56,-5.32,4.73,10.93
29806,-3.12,224.94,-82.94,-5.49,2.97,11.70
29818,56.94,230.94,-81.06,-5.38,3.56,10.25
29829,113.50,237.50,-79.75,-7.26,4.63,10.29
29839,151.44,241.75,-82.19,-7.68,6.61,10.03
29846,160.06,245.19,-91.50,-7.21,4.77,8.82
29856,172.50,256.62,-107.56,-7.68,1.98,9.91
29866,218.31,262.56,-128.25,-8.80,2.26,9.27
29879,269.75,268.06,-146.44,-9.45,4.55,7.46
29889,301.88,285.88,-151.62,-14.61,5.43,20.34
